------------ Data File Created By ActiGraph GT3X+ gt3x2csv 0.5.0 Firmware v1.9.2 date format d/MM/yyyy at 60 Hz  Filter Normal -----------
Serial Number: MOS2E17210537
Start Time 14:53:00
Start Date 30/04/2024
Idle Sleep Mode: True
Sample Rate: 60
Epoch Period (hh:mm:ss) 00:00:00
Download Time 14:55:00
Download Date 30/04/2024
Current Memory Address: 0
Current Battery Voltage: 4     Mode = 12
--------------------------------------------------
Accelerometer X,Accelerometer Y,Accelerometer Z
-0.52,-0.52,-0.637
-0.297,-0.551,-0.555
-0.199,-0.512,-0.535
-0.316,-0.473,-0.551
-0.273,-0.379,-0.582
-0.246,-0.25,-0.582
-0.273,-0.211,-0.57
-0.305,-0.215,-0.586
-0.344,-0.176,-0.613
-0.348,-0.137,-0.609
-0.324,-0.102,-0.586
-0.344,-0.105,-0.617
-0.539,-0.188,-0.746
-0.844,-0.32,-0.852
-0.934,-0.402,-0.871
-0.848,-0.379,-0.836
-0.863,-0.367,-0.793
-0.941,-0.406,-0.781
-1.039,-0.441,-0.738
-1.055,-0.461,-0.68
-0.992,-0.43,-0.633
-0.914,-0.367,-0.602
-0.816,-0.328,-0.559
-0.785,-0.313,-0.527
-0.828,-0.32,-0.469
-0.828,-0.313,-0.398
-0.762,-0.277,-0.316
-0.723,-0.246,-0.273
-0.699,-0.242,-0.266
-0.66,-0.246,-0.266
-0.652,-0.234,-0.277
-0.641,-0.238,-0.273
-0.625,-0.227,-0.266
-0.645,-0.195,-0.266
-0.727,-0.172,-0.32
-0.934,-0.191,-0.453
-1.16,-0.301,-0.582
-1.297,-0.441,-0.668
-1.313,-0.535,-0.684
-1.262,-0.578,-0.664
-1.164,-0.578,-0.633
-1.164,-0.496,-0.648
-1.246,-0.449,-0.68
-1.238,-0.543,-0.691
-1.047,-0.566,-0.625
-0.793,-0.469,-0.496
-0.594,-0.301,-0.379
-0.531,-0.152,-0.32
-0.598,-0.074,-0.328
-0.699,-0.031,-0.359
-0.762,-0.016,-0.391
-0.813,-0.008,-0.398
-0.844,-0.008,-0.395
-0.863,-0.012,-0.383
-0.887,0.008,-0.375
-0.922,0.039,-0.383
-0.988,0.09,-0.406
-1.07,0.133,-0.422
-1.129,0.145,-0.43
-1.188,0.141,-0.457
-1.195,0.152,-0.469
-1.125,0.172,-0.477
-1.055,0.207,-0.504
-1.105,0.211,-0.563
-1.125,0.219,-0.602
-0.961,0.219,-0.664
-0.855,0.184,-0.75
-0.813,0.078,-0.773
-0.68,-0.016,-0.723
-0.711,-0.113,-0.766
-0.879,-0.227,-0.797
-0.91,-0.25,-0.82
-0.77,-0.246,-0.789
-0.699,-0.246,-0.73
-0.727,-0.285,-0.637
-0.469,-0.203,-0.711
-0.66,-0.145,-0.797
-0.855,-0.078,-0.727
-0.773,-0.012,-0.652
-0.547,-0.129,-0.828
-1.059,-0.223,-0.906
-1.594,0.168,-0.051
-0.613,0.328,0.035
-0.133,0.008,-0.137
-0.426,-0.254,-0.336
-0.629,-0.094,-0.414
-0.531,0.039,-0.441
-0.523,0.035,-0.465
-0.594,0.023,-0.504
-0.676,0.047,-0.512
-0.695,0.082,-0.484
-0.711,0.066,-0.465
-0.789,0.059,-0.469
-0.859,0.043,-0.469
-0.852,0.035,-0.461
-0.836,0.027,-0.473
-0.852,0.055,-0.453
-0.836,0.059,-0.461
-0.82,0.043,-0.477
-0.793,0.004,-0.516
-0.777,-0.012,-0.535
-0.754,-0.031,-0.563
-0.723,-0.059,-0.59
-0.691,-0.094,-0.625
-0.664,-0.098,-0.637
-0.664,-0.117,-0.641
-0.652,-0.148,-0.637
-0.629,-0.156,-0.621
-0.574,-0.152,-0.59
-0.52,-0.168,-0.57
-0.539,-0.215,-0.594
-0.59,-0.223,-0.613
-0.574,-0.219,-0.594
-0.527,-0.195,-0.582
-0.496,-0.16,-0.543
-0.434,-0.113,-0.484
-0.445,-0.098,-0.465
-0.477,-0.109,-0.457
-0.508,-0.129,-0.441
-0.52,-0.141,-0.418
-0.504,-0.129,-0.398
-0.469,-0.105,-0.387
-0.539,-0.059,-0.434
-0.699,-0.094,-0.504
-0.902,-0.223,-0.574
-1.141,-0.375,-0.605
-1.406,-0.531,-0.594
-1.598,-0.68,-0.555
-1.676,-0.781,-0.512
-1.668,-0.809,-0.516
-1.578,-0.781,-0.559
-1.398,-0.727,-0.629
-1.191,-0.656,-0.688
-1.035,-0.578,-0.719
-0.895,-0.5,-0.719
-0.801,-0.414,-0.668
-0.766,-0.328,-0.629
-0.688,-0.277,-0.598
-0.594,-0.219,-0.594
-0.551,-0.152,-0.594
-0.508,-0.141,-0.594
-0.496,-0.18,-0.57
-0.488,-0.219,-0.52
-0.566,-0.273,-0.504
-0.684,-0.344,-0.512
-0.766,-0.422,-0.52
-0.805,-0.492,-0.551
-0.844,-0.52,-0.59
-0.883,-0.508,-0.602
-0.926,-0.504,-0.594
-1.02,-0.492,-0.566
-1.039,-0.512,-0.563
-0.973,-0.469,-0.566
-0.859,-0.391,-0.555
-0.77,-0.313,-0.543
-0.707,-0.273,-0.543
-0.723,-0.277,-0.539
-0.75,-0.289,-0.555
-0.785,-0.289,-0.602
-0.773,-0.293,-0.609
-0.727,-0.293,-0.613
-0.668,-0.281,-0.594
-0.57,-0.25,-0.555
-0.488,-0.203,-0.492
-0.43,-0.152,-0.434
-0.414,-0.102,-0.406
-0.426,-0.094,-0.402
-0.418,-0.105,-0.383
-0.441,-0.137,-0.387
-0.516,-0.199,-0.441
-0.57,-0.27,-0.496
-0.621,-0.305,-0.504
-0.633,-0.32,-0.488
-0.633,-0.328,-0.457
-0.602,-0.313,-0.395
-0.555,-0.285,-0.332
-0.508,-0.262,-0.301
-0.484,-0.227,-0.313
-0.441,-0.191,-0.344
-0.387,-0.168,-0.363
-0.363,-0.121,-0.383
-0.352,-0.109,-0.43
-0.363,-0.133,-0.473
-0.395,-0.18,-0.477
-0.461,-0.223,-0.477
-0.617,-0.316,-0.508
-0.883,-0.52,-0.551
-1.156,-0.773,-0.578
-1.375,-1.051,-0.555
-1.512,-1.258,-0.555
-1.566,-1.313,-0.605
-1.48,-1.293,-0.668
-1.336,-1.234,-0.723
-1.113,-1.09,-0.742
-0.816,-0.895,-0.734
-0.621,-0.684,-0.699
-0.582,-0.504,-0.645
-0.598,-0.336,-0.586
-0.598,-0.207,-0.547
-0.563,-0.098,-0.531
-0.496,-0.027,-0.52
-0.41,0.031,-0.516
-0.32,0.063,-0.508
-0.234,0.102,-0.469
-0.121,0.168,-0.359
-0.043,0.242,-0.266
-0.074,0.27,-0.242
-0.102,0.219,-0.25
-0.168,0.145,-0.172
-0.293,0.094,-0.113
-0.527,0.043,-0.227
-0.883,-0.188,-0.477
-1.348,-0.539,-0.547
-1.586,-0.996,-0.613
-1.602,-1.301,-0.836
-1.359,-1.168,-0.957
-0.883,-0.902,-0.945
-0.543,-0.676,-0.859
-0.426,-0.48,-0.699
-0.469,-0.332,-0.578
-0.484,-0.188,-0.547
-0.406,-0.051,-0.512
-0.227,0.063,-0.465
-0.074,0.156,-0.395
0.02,0.176,-0.344
-0.012,0.148,-0.273
-0.074,0.102,-0.176
-0.277,-0.027,-0.227
-0.723,-0.422,-0.313
-1.219,-1.082,-0.367
-1.664,-1.832,-0.523
-1.754,-2.152,-0.848
-1.496,-1.969,-1.012
-1.156,-1.844,-1.098
-0.891,-1.559,-1.113
-0.613,-1.234,-1.063
-0.387,-0.926,-0.875
-0.402,-0.656,-0.68
-0.469,-0.484,-0.574
-0.531,-0.34,-0.547
-0.547,-0.234,-0.59
-0.434,-0.199,-0.621
-0.293,-0.141,-0.598
-0.16,-0.039,-0.465
-0.16,0.023,-0.383
-0.18,0.043,-0.387
-0.23,0.082,-0.27
0.027,0.105,-0.293
0,0.063,-0.297
-0.121,-0.027,-0.266
-0.219,-0.117,-0.063
-0.332,-0.34,-0.059
-0.539,-0.773,-0.336
-0.754,-1.16,-0.461
-0.844,-1.547,-0.68
-0.77,-1.652,-0.836
-0.73,-1.492,-0.836
-0.766,-1.281,-0.746
-0.598,-1.156,-0.695
-0.426,-0.934,-0.664
-0.324,-0.73,-0.637
-0.324,-0.508,-0.609
-0.348,-0.297,-0.594
-0.316,-0.117,-0.539
-0.301,-0.016,-0.461
-0.281,0.027,-0.398
-0.211,0.008,-0.355
-0.168,-0.035,-0.266
-0.188,-0.16,-0.148
-0.258,-0.441,-0.078
-0.449,-0.871,-0.043
-0.75,-1.477,0.039
-1.004,-2.09,0.09
-1.227,-2.449,0.035
-1.172,-2.348,-0.117
-0.945,-2.16,-0.27
-0.625,-1.887,-0.352
-0.332,-1.496,-0.426
-0.227,-1.141,-0.438
-0.195,-0.867,-0.434
-0.195,-0.594,-0.426
-0.25,-0.383,-0.457
-0.23,-0.254,-0.5
-0.156,-0.105,-0.539
-0.102,0.016,-0.359
-0.148,-0.02,-0.457
-0.051,0.039,-0.59
0.469,0.145,-0.613
0.43,0.133,-0.516
0.238,-0.121,-0.383
-0.082,-0.293,-0.25
-0.375,-0.512,-0.254
-0.609,-0.945,-0.293
-1.059,-1.527,-0.332
-1.332,-1.996,-0.488
-1.328,-1.914,-0.621
-0.977,-1.598,-0.664
-0.586,-1.258,-0.629
-0.316,-0.957,-0.527
-0.211,-0.629,-0.398
-0.172,-0.379,-0.328
-0.145,-0.184,-0.348
-0.066,0.02,-0.371
0.051,0.168,-0.406
0.137,0.258,-0.402
0.219,0.254,-0.355
0.16,0.207,-0.324
0.063,0.055,-0.273
-0.148,-0.238,-0.195
-0.504,-0.801,-0.168
-0.977,-1.547,-0.141
-1.371,-2.367,-0.125
-1.574,-2.891,-0.246
-1.363,-2.738,-0.367
-1.059,-2.477,-0.512
-0.711,-2.055,-0.531
-0.48,-1.633,-0.488
-0.313,-1.258,-0.422
-0.266,-0.941,-0.43
-0.301,-0.691,-0.461
-0.344,-0.48,-0.457
-0.367,-0.297,-0.438
-0.348,-0.188,-0.461
-0.324,-0.051,-0.473
-0.246,0.063,-0.469
-0.09,0.117,-0.434
-0.094,0.098,-0.348
0.023,0.039,-0.465
0.195,0.145,-0.551
0.074,0.203,-0.398
-0.023,0.125,-0.254
-0.152,-0.094,-0.133
-0.328,-0.477,0.012
-0.59,-1.031,0.016
-1.121,-1.633,-0.113
-1.41,-2.344,-0.27
-1.355,-2.391,-0.496
-0.965,-1.949,-0.641
-0.637,-1.664,-0.629
-0.32,-1.32,-0.484
-0.156,-0.945,-0.309
-0.215,-0.652,-0.16
-0.344,-0.422,-0.145
-0.445,-0.281,-0.184
-0.137,-0.18,-0.406
0.16,-0.047,-0.594
0.191,0.066,-0.629
0.211,0.07,-0.535
0.043,-0.016,-0.363
-0.23,-0.27,-0.254
-0.52,-0.652,-0.289
-1.176,-1.215,-0.324
-1.727,-2.039,-0.352
-1.836,-2.449,-0.434
-1.574,-2.25,-0.52
-1.156,-1.93,-0.566
-0.773,-1.609,-0.508
-0.492,-1.285,-0.383
-0.418,-0.969,-0.293
-0.5,-0.742,-0.277
-0.574,-0.547,-0.313
-0.555,-0.406,-0.348
-0.453,-0.305,-0.371
-0.375,-0.227,-0.379
-0.332,-0.215,-0.379
-0.328,-0.184,-0.309
-0.316,-0.211,-0.258
-0.293,-0.238,-0.211
-0.281,-0.266,-0.176
-0.273,-0.305,-0.164
-0.285,-0.328,-0.16
-0.281,-0.344,-0.156
-0.254,-0.355,-0.125
-0.242,-0.359,-0.125
-0.309,-0.402,-0.176
-0.281,-0.402,-0.195
-0.262,-0.402,-0.234
-0.25,-0.43,-0.266
-0.23,-0.504,-0.262
-0.246,-0.688,-0.27
-0.223,-1.02,-0.254
-0.281,-1.348,-0.234
-0.43,-1.738,-0.289
-0.609,-2.027,-0.539
-0.551,-2.113,-0.848
-0.438,-2.18,-1.133
-0.297,-2.07,-1.195
-0.324,-1.809,-1.051
-0.438,-1.551,-0.785
-0.602,-1.309,-0.48
-0.66,-0.996,-0.355
-0.598,-0.738,-0.395
-0.488,-0.559,-0.488
-0.426,-0.469,-0.563
-0.418,-0.438,-0.457
-0.496,-0.371,-0.352
-0.523,-0.289,-0.281
-0.547,-0.297,-0.223
-0.586,-0.352,-0.16
-0.426,-0.352,-0.172
-0.395,-0.332,-0.188
-0.465,-0.395,-0.188
-0.449,-0.5,-0.152
-0.414,-0.594,-0.09
-0.469,-0.77,-0.063
-0.441,-1.09,0.012
-0.605,-1.523,0.156
-0.875,-2.004,0.297
-1.109,-2.324,0.359
-0.996,-2.23,0.379
-0.648,-2.055,0.297
-0.32,-1.891,0.223
-0.098,-1.742,0.176
0.066,-1.461,0.152
0.109,-1.234,0.164
0.117,-1.035,0.141
0.059,-0.918,0.121
0.078,-0.879,0.074
0.074,-0.813,0.035
0.063,-0.754,-0.004
0.082,-0.723,-0.035
0.078,-0.781,0.02
-0.094,-0.836,0.113
-0.199,-0.926,0.172
-0.242,-1.027,0.215
-0.262,-1.121,0.223
-0.25,-1.086,0.219
-0.211,-1.078,0.176
-0.172,-1.063,0.129
-0.207,-1,0.137
-0.281,-0.945,0.063
-0.207,-0.949,0
-0.215,-0.969,0.039
-0.309,-0.914,0.008
-0.316,-0.832,-0.09
-0.285,-0.742,-0.34
-0.219,-0.648,-0.387
-0.227,-0.664,-0.457
-0.219,-0.793,-0.469
-0.234,-0.926,-0.488
-0.285,-0.969,-0.527
-0.293,-0.934,-0.555
-0.285,-0.848,-0.555
-0.297,-0.754,-0.527
-0.277,-0.68,-0.484
-0.305,-0.617,-0.473
-0.383,-0.59,-0.531
-0.391,-0.574,-0.563
-0.375,-0.559,-0.547
-0.387,-0.59,-0.551
-0.473,-0.602,-0.578
-0.563,-0.637,-0.621
-0.566,-0.664,-0.664
-0.598,-0.652,-0.691
-0.625,-0.625,-0.699
-0.633,-0.594,-0.707
-0.656,-0.551,-0.688
-0.676,-0.5,-0.648
-0.695,-0.477,-0.621
-0.734,-0.434,-0.598
-0.758,-0.383,-0.57
-0.797,-0.391,-0.531
-0.93,-0.445,-0.504
-1.066,-0.535,-0.492
-1.23,-0.723,-0.504
-1.32,-0.914,-0.473
-1.281,-1.02,-0.402
-1.215,-1.059,-0.352
-1.09,-1.039,-0.344
-0.918,-0.965,-0.363
-0.762,-0.859,-0.406
-0.605,-0.746,-0.445
-0.426,-0.621,-0.426
-0.336,-0.496,-0.395
-0.313,-0.43,-0.352
-0.281,-0.371,-0.32
-0.277,-0.324,-0.324
-0.27,-0.34,-0.316
-0.297,-0.363,-0.309
-0.383,-0.387,-0.301
-0.426,-0.43,-0.262
-0.492,-0.48,-0.195
-0.602,-0.523,-0.168
-0.68,-0.566,-0.156
-0.703,-0.617,-0.188
-0.723,-0.672,-0.207
-0.77,-0.707,-0.262
-0.754,-0.691,-0.313
-0.734,-0.695,-0.313
-0.801,-0.699,-0.297
-0.906,-0.668,-0.27
-0.988,-0.656,-0.289
-1.016,-0.621,-0.371
-0.961,-0.551,-0.48
-0.883,-0.48,-0.57
-0.813,-0.445,-0.578
-0.801,-0.441,-0.531
-0.797,-0.414,-0.438
-0.84,-0.402,-0.359
-0.91,-0.332,-0.305
-0.859,-0.25,-0.266
-0.758,-0.188,-0.215
-0.664,-0.133,-0.18
-0.598,-0.074,-0.105
-0.645,-0.047,-0.035
-0.648,-0.07,-0.086
-0.625,-0.051,-0.059
-0.625,-0.055,0.004
-0.73,-0.109,0.016
-0.738,-0.105,0.004
-0.801,-0.141,0
-0.867,-0.188,0.047
-0.953,-0.227,0.105
-1.016,-0.277,0.176
-1.066,-0.32,0.23
-1.09,-0.336,0.238
-1.051,-0.324,0.227
-0.992,-0.305,0.211
-0.973,-0.27,0.242
-1.012,-0.273,0.336
-1.137,-0.328,0.527
-1.348,-0.504,0.723
-1.41,-0.664,0.676
-1.254,-0.637,0.492
-1.027,-0.574,0.313
-0.887,-0.512,0.25
-0.863,-0.469,0.281
-0.918,-0.492,0.336
-0.957,-0.516,0.395
-0.914,-0.5,0.387
-0.828,-0.438,0.34
-0.758,-0.359,0.293
-0.668,-0.297,0.266
-0.641,-0.238,0.25
-0.641,-0.207,0.25
-0.656,-0.191,0.285
-0.707,-0.164,0.305
-0.727,-0.141,0.313
-0.707,-0.137,0.324
-0.715,-0.145,0.336
-0.734,-0.148,0.32
-0.758,-0.199,0.313
-0.762,-0.238,0.316
-0.777,-0.273,0.32
-0.797,-0.309,0.336
-0.832,-0.348,0.344
-0.863,-0.391,0.328
-0.883,-0.418,0.309
-0.914,-0.43,0.289
-0.949,-0.449,0.25
-0.977,-0.457,0.203
-0.969,-0.496,0.18
-0.973,-0.535,0.234
-1.008,-0.504,0.309
-1.063,-0.465,0.336
-1.113,-0.426,0.25
-1.125,-0.453,0.113
-1.055,-0.465,0.047
-1.004,-0.457,0.031
-0.965,-0.438,0.039
-0.922,-0.441,0.055
-0.879,-0.414,0.066
-0.875,-0.375,0.105
-0.895,-0.313,0.082
-0.84,-0.273,0.082
-0.719,-0.223,0.113
-0.637,-0.184,0.086
-0.594,-0.168,0.051
-0.586,-0.141,0.051
-0.613,-0.125,0.039
-0.68,-0.105,0.02
-0.781,-0.102,0
-0.852,-0.09,-0.02
-0.914,-0.07,-0.031
-0.965,-0.055,-0.039
-1.012,-0.023,-0.035
-1.035,0.012,-0.02
-1.051,0.055,0
-1.074,0.105,0.027
-1.113,0.129,0.051
-1.141,0.137,0.066
-1.113,0.148,0.066
-1.055,0.195,0.098
-1.074,0.266,0.172
-1.129,0.277,0.27
-1.215,0.191,0.359
-1.332,0.031,0.422
-1.332,-0.117,0.391
-1.176,-0.156,0.34
-1.023,-0.105,0.305
-0.93,-0.063,0.305
-0.918,-0.07,0.328
-0.922,-0.113,0.348
-0.879,-0.137,0.293
-0.809,-0.133,0.211
-0.754,-0.09,0.266
-0.695,-0.023,0.328
-0.668,0.039,0.383
-0.691,0.07,0.348
-0.73,0.078,0.297
-0.734,0.109,0.281
-0.742,0.125,0.297
-0.781,0.156,0.316
-0.855,0.156,0.285
-0.945,0.117,0.238
-1.035,0.086,0.219
-1.078,0.086,0.219
-1.039,0.063,0.195
-0.984,0.023,0.145
-0.973,-0.02,0.102
-0.996,-0.043,0.059
-1.031,-0.074,-0.012
-1.078,-0.109,-0.082
-1.07,-0.137,-0.066
-0.973,-0.211,-0.035
-0.875,-0.273,-0.008
-0.852,-0.293,0.012
-0.836,-0.336,0.039
-0.867,-0.379,0.008
-0.949,-0.367,-0.055
-0.98,-0.32,-0.117
-0.906,-0.313,-0.164
-0.832,-0.328,-0.191
-0.828,-0.383,-0.199
-0.863,-0.422,-0.168
-0.902,-0.434,-0.117
-0.926,-0.441,-0.066
-0.961,-0.414,-0.027
-0.965,-0.367,-0.016
-0.926,-0.316,-0.027
-0.867,-0.25,-0.039
-0.824,-0.207,-0.031
-0.809,-0.156,-0.027
-0.816,-0.113,-0.031
-0.824,-0.086,-0.023
-0.848,-0.051,0.016
-0.91,0.008,0.094
-1.008,0.063,0.145
-1.043,0.086,0.117
-1.016,0.078,0.039
-0.992,0.066,-0.066
-0.977,0.043,-0.168
-1.016,0.02,-0.211
-1.074,0,-0.258
-1.102,-0.008,-0.301
-1.051,-0.004,-0.34
-0.949,0.012,-0.383
-0.926,0.051,-0.41
-0.945,0.066,-0.43
-0.969,0.035,-0.441
-1.043,-0.008,-0.457
-1.18,-0.102,-0.5
-1.293,-0.223,-0.563
-1.258,-0.297,-0.578
-1.172,-0.313,-0.551
-1.125,-0.313,-0.543
-1.074,-0.336,-0.586
-0.969,-0.355,-0.66
-0.902,-0.332,-0.738
-0.848,-0.363,-0.801
-0.691,-0.43,-0.805
-0.496,-0.434,-0.762
-0.293,-0.402,-0.766
-0.117,-0.359,-0.777
-0.016,-0.313,-0.785
-0.016,-0.258,-0.828
-0.074,-0.238,-0.836
-0.148,-0.203,-0.836
-0.148,-0.188,-0.836
-0.109,-0.164,-0.766
-0.07,-0.137,-0.707
-0.07,-0.168,-0.762
-0.219,-0.328,-0.875
-0.363,-0.504,-0.891
-0.355,-0.551,-0.848
-0.297,-0.547,-0.824
-0.324,-0.578,-0.852
-0.418,-0.656,-0.926
-0.488,-0.742,-0.879
-0.457,-0.75,-0.715
-0.402,-0.754,-0.602
-0.387,-0.836,-0.605
-0.387,-0.969,-0.66
-0.371,-1.008,-0.668
-0.48,-0.996,-0.727
-0.566,-0.988,-1.004
-0.594,-0.785,-1.336
-0.113,-0.395,-1.395
0.258,-0.117,-1.246
0.305,-0.09,-0.977
0.25,-0.176,-0.734
0.164,-0.32,-0.676
0.086,-0.5,-0.855
0.117,-0.559,-0.941
0.094,-0.449,-0.777
-0.023,-0.445,-0.719
0.012,-0.539,-0.766
0.098,-0.637,-0.832
0.129,-0.664,-0.855
0.234,-0.711,-0.813
0.438,-0.742,-0.746
0.473,-0.762,-0.766
0.41,-0.809,-0.82
0.348,-0.824,-0.875
0.238,-0.738,-0.902
0.047,-0.641,-0.887
-0.063,-0.609,-0.836
-0.031,-0.578,-0.754
-0.059,-0.555,-0.707
-0.082,-0.543,-0.684
-0.031,-0.566,-0.703
0.027,-0.625,-0.711
0.012,-0.668,-0.707
-0.016,-0.695,-0.707
0,-0.676,-0.711
-0.012,-0.637,-0.746
-0.074,-0.656,-0.867
-0.09,-0.695,-0.984
-0.031,-0.652,-1.027
0.012,-0.594,-0.988
-0.055,-0.563,-0.969
-0.086,-0.566,-0.969
-0.094,-0.527,-0.93
-0.102,-0.504,-0.879
-0.152,-0.496,-0.879
-0.191,-0.504,-0.906
-0.207,-0.484,-0.926
-0.188,-0.465,-0.938
-0.16,-0.41,-0.918
-0.277,-0.418,-0.934
-0.246,-0.406,-0.898
-0.434,-0.332,-0.934
-0.84,-0.543,-1.066
-0.773,-0.75,-1.133
-0.465,-0.629,-1.055
-0.359,-0.465,-1.004
-0.215,-0.527,-0.984
-0.012,-0.398,-0.93
-0.113,-0.23,-0.918
0.008,-0.223,-0.941
0.184,-0.203,-0.887
0.324,-0.059,-0.809
0.355,-0.039,-0.813
0.313,-0.133,-0.863
0.23,-0.172,-0.887
0.199,-0.125,-0.824
0.23,-0.063,-0.754
0.254,-0.004,-0.672
0.063,0.07,-0.605
-0.191,-0.094,-0.727
-0.184,-0.07,-0.801
-0.078,-0.055,-0.855
0.094,-0.074,-0.871
0.266,-0.109,-0.84
0.367,-0.199,-0.871
0.273,-0.461,-0.902
0.293,-0.566,-0.941
0.277,-0.605,-0.938
0.215,-0.617,-0.879
0.242,-0.625,-0.926
0.289,-0.566,-1.008
0.289,-0.512,-1.047
0.348,-0.359,-0.977
0.316,-0.16,-0.879
0.164,-0.066,-0.879
0.133,-0.164,-0.973
0.148,-0.254,-1.078
0.141,-0.34,-1.121
0.152,-0.391,-1.102
0.168,-0.461,-1.055
0.133,-0.586,-1.02
0.098,-0.727,-1.016
0.004,-0.816,-1.02
-0.047,-0.773,-0.945
0.121,-0.793,-0.836
0.426,-0.754,-0.773
0.551,-0.699,-0.609
0.441,-0.609,-0.52
0.309,-0.547,-0.578
0.164,-0.609,-0.699
-0.113,-0.695,-0.82
-0.32,-0.695,-0.906
-0.234,-0.543,-0.934
-0.059,-0.363,-0.926
0.059,-0.293,-0.945
0.035,-0.297,-0.949
-0.18,-0.273,-0.938
-0.414,-0.246,-0.914
-0.547,-0.195,-0.895
-0.613,-0.137,-0.898
-0.68,-0.098,-0.914
-0.754,-0.059,-0.918
-0.82,-0.02,-0.898
-0.863,0.039,-0.859
-0.887,0.105,-0.809
-0.875,0.148,-0.75
-0.859,0.18,-0.715
-0.906,0.199,-0.711
-1.059,0.141,-0.711
-1.117,0.031,-0.695
-1.023,-0.035,-0.668
-0.902,-0.043,-0.621
-0.785,-0.066,-0.59
-0.699,-0.113,-0.582
-0.645,-0.145,-0.574
-0.621,-0.168,-0.547
-0.629,-0.172,-0.52
-0.652,-0.172,-0.504
-0.668,-0.172,-0.488
-0.652,-0.191,-0.488
-0.641,-0.223,-0.5
-0.621,-0.277,-0.512
-0.602,-0.313,-0.527
-0.598,-0.348,-0.535
-0.609,-0.398,-0.539
-0.648,-0.434,-0.531
-0.688,-0.461,-0.527
-0.699,-0.473,-0.52
-0.711,-0.492,-0.512
-0.723,-0.52,-0.508
-0.727,-0.555,-0.488
-0.77,-0.594,-0.434
-0.945,-0.652,-0.383
-1.18,-0.719,-0.355
-1.254,-0.688,-0.313
-1.148,-0.566,-0.281
-1.023,-0.477,-0.254
-0.953,-0.449,-0.23
-0.938,-0.445,-0.203
-0.934,-0.434,-0.168
-0.941,-0.418,-0.141
-0.965,-0.398,-0.125
-0.957,-0.395,-0.121
-0.914,-0.387,-0.117
-0.871,-0.348,-0.109
-0.797,-0.305,-0.098
-0.766,-0.277,-0.094
-0.742,-0.273,-0.105
-0.711,-0.27,-0.102
-0.691,-0.254,-0.094
-0.691,-0.227,-0.102
-0.73,-0.215,-0.117
-0.742,-0.195,-0.141
-0.742,-0.176,-0.156
-0.762,-0.16,-0.176
-0.82,-0.18,-0.199
-0.875,-0.199,-0.219
-0.91,-0.191,-0.227
-0.922,-0.176,-0.242
-0.984,-0.168,-0.242
-1.016,-0.195,-0.258
-1.051,-0.262,-0.273
-1.168,-0.398,-0.297
-1.273,-0.551,-0.336
-1.293,-0.66,-0.344
-1.164,-0.688,-0.316
-0.973,-0.645,-0.27
-0.82,-0.59,-0.254
-0.781,-0.609,-0.289
-0.82,-0.707,-0.332
-0.797,-0.805,-0.344
-0.746,-0.875,-0.309
-0.684,-0.871,-0.258
-0.613,-0.801,-0.211
-0.539,-0.703,-0.18
-0.5,-0.621,-0.184
-0.5,-0.598,-0.199
-0.512,-0.621,-0.211
-0.523,-0.648,-0.199
-0.531,-0.668,-0.18
-0.531,-0.664,-0.16
-0.52,-0.664,-0.164
-0.492,-0.664,-0.18
-0.473,-0.664,-0.191
-0.469,-0.664,-0.188
-0.477,-0.66,-0.172
-0.461,-0.664,-0.164
-0.48,-0.668,-0.16
-0.508,-0.703,-0.168
-0.5,-0.742,-0.176
-0.523,-0.77,-0.172
-0.551,-0.801,-0.18
-0.563,-0.813,-0.18
-0.574,-0.793,-0.18
-0.559,-0.766,-0.172
-0.59,-0.711,-0.191
-0.691,-0.707,-0.227
-0.715,-0.738,-0.258
-0.688,-0.766,-0.285
-0.672,-0.789,-0.293
-0.641,-0.82,-0.289
-0.57,-0.84,-0.277
-0.504,-0.855,-0.27
-0.441,-0.875,-0.266
-0.398,-0.879,-0.25
-0.383,-0.855,-0.238
-0.387,-0.824,-0.234
-0.402,-0.801,-0.227
-0.414,-0.793,-0.215
-0.414,-0.801,-0.199
-0.43,-0.824,-0.184
-0.441,-0.867,-0.18
-0.461,-0.898,-0.203
-0.492,-0.926,-0.219
-0.496,-0.953,-0.215
-0.5,-0.98,-0.211
-0.531,-0.984,-0.227
-0.551,-0.984,-0.254
-0.555,-0.98,-0.273
-0.547,-0.973,-0.297
-0.527,-0.957,-0.324
-0.492,-0.934,-0.34
-0.422,-0.918,-0.332
-0.367,-0.887,-0.313
-0.324,-0.859,-0.289
-0.309,-0.836,-0.281
-0.293,-0.82,-0.293
-0.285,-0.781,-0.305
-0.301,-0.758,-0.324
-0.324,-0.762,-0.363
-0.367,-0.816,-0.402
-0.402,-0.879,-0.441
-0.414,-0.934,-0.473
-0.441,-0.957,-0.496
-0.461,-0.965,-0.5
-0.473,-0.961,-0.484
-0.473,-0.949,-0.461
-0.488,-0.914,-0.418
-0.512,-0.852,-0.375
-0.547,-0.77,-0.324
-0.582,-0.707,-0.297
-0.645,-0.691,-0.277
-0.695,-0.691,-0.254
-0.727,-0.684,-0.203
-0.77,-0.68,-0.191
-0.852,-0.707,-0.227
-0.961,-0.758,-0.266
-0.961,-0.84,-0.301
-0.855,-0.879,-0.281
-0.707,-0.848,-0.234
-0.574,-0.781,-0.211
-0.496,-0.695,-0.238
-0.477,-0.645,-0.301
-0.508,-0.605,-0.352
-0.512,-0.574,-0.359
-0.473,-0.523,-0.348
-0.406,-0.473,-0.352
-0.418,-0.414,-0.395
-0.426,-0.406,-0.469
-0.375,-0.43,-0.512
-0.297,-0.434,-0.543
-0.242,-0.434,-0.563
-0.164,-0.457,-0.566
-0.098,-0.484,-0.594
-0.066,-0.531,-0.648
-0.059,-0.633,-0.688
0.008,-0.742,-0.703
0.063,-0.836,-0.707
0.121,-0.914,-0.688
0.141,-0.984,-0.688
0.059,-1.07,-0.695
0,-1.176,-0.711
-0.016,-1.207,-0.703
0.02,-1.219,-0.668
0.066,-1.227,-0.613
0.082,-1.281,-0.559
0.098,-1.32,-0.551
0.039,-1.219,-0.5
-0.051,-1.078,-0.391
-0.082,-1.063,-0.324
-0.004,-1.203,-0.344
0.113,-1.297,-0.355
0.082,-1.266,-0.336
-0.023,-1.219,-0.309
-0.094,-1.156,-0.289
-0.109,-1.039,-0.266
-0.07,-0.914,-0.242
-0.043,-0.797,-0.219
-0.047,-0.734,-0.203
-0.113,-0.715,-0.199
-0.145,-0.66,-0.188
-0.117,-0.609,-0.164
-0.098,-0.641,-0.141
-0.09,-0.723,-0.125
-0.063,-0.742,-0.117
0.035,-0.754,-0.098
0.152,-0.84,-0.094
0.223,-0.902,-0.098
0.289,-0.93,-0.109
0.348,-0.93,-0.074
0.359,-0.969,-0.016
0.402,-1.07,0.074
0.332,-1.207,0.121
0.301,-1.293,0.102
0.367,-1.215,0.082
0.273,-1.141,0
0.051,-1.246,-0.102
0.254,-1.086,-0.152
0.449,-0.949,-0.043
0.68,-0.926,-0.008
0.773,-0.969,-0.047
0.598,-1.039,-0.094
0.488,-1.078,-0.141
0.484,-1.066,-0.109
0.551,-0.965,0.031
0.516,-0.855,0.164
0.473,-0.809,0.211
0.418,-0.828,0.215
0.301,-0.859,0.223
0.156,-0.883,0.242
0.059,-0.875,0.254
0.043,-0.875,0.266
0.063,-0.891,0.281
0.148,-0.922,0.266
0.258,-0.949,0.23
0.363,-0.941,0.242
0.402,-0.906,0.258
0.453,-0.938,0.266
0.523,-0.988,0.293
0.559,-0.949,0.352
0.48,-0.855,0.418
0.461,-0.855,0.398
0.629,-0.922,0.355
0.758,-0.992,0.359
0.617,-0.941,0.383
0.434,-0.898,0.402
0.441,-0.898,0.422
0.457,-0.883,0.395
0.449,-0.852,0.391
0.453,-0.809,0.359
0.449,-0.77,0.313
0.441,-0.695,0.234
0.398,-0.617,0.176
0.348,-0.66,0.168
0.359,-0.781,0.176
0.438,-0.793,0.223
0.355,-0.789,0.215
0.449,-0.875,0.18
0.594,-0.91,0.105
0.531,-0.895,0.094
0.492,-0.859,0.074
0.395,-0.852,0.004
0.273,-0.914,-0.09
0.219,-0.945,-0.16
0.051,-0.941,-0.168
0.004,-0.973,-0.129
0.125,-0.949,-0.086
0.098,-0.895,-0.02
-0.023,-0.895,0.039
-0.008,-0.934,0.102
0.035,-0.957,0.141
-0.059,-1.027,0.117
-0.109,-1.098,0.102
-0.074,-1.109,0.137
0.02,-1.063,0.172
0.016,-1.051,0.184
-0.039,-1.078,0.184
0.016,-1.078,0.164
0.152,-0.98,0.168
0.223,-0.918,0.215
0.207,-0.957,0.301
0.121,-1.129,0.359
0.02,-1.34,0.363
-0.102,-1.445,0.34
-0.227,-1.371,0.246
-0.313,-1.199,0.141
-0.293,-1.105,0.02
-0.203,-1.133,0.031
-0.027,-1.164,0.172
0.188,-1.16,0.332
0.281,-1.156,0.414
0.285,-1.117,0.438
0.207,-1.043,0.406
0.086,-0.945,0.328
-0.012,-0.852,0.297
0.016,-0.762,0.324
0.043,-0.691,0.375
0.035,-0.676,0.406
0.039,-0.672,0.426
0.047,-0.621,0.48
0.027,-0.566,0.566
-0.043,-0.57,0.645
-0.086,-0.625,0.676
-0.117,-0.699,0.672
-0.219,-0.754,0.629
-0.25,-0.777,0.594
-0.328,-0.813,0.535
-0.379,-0.859,0.48
-0.391,-0.883,0.438
-0.395,-0.977,0.359
-0.375,-1.074,0.27
-0.367,-1.176,0.113
-0.379,-1.215,-0.055
-0.398,-1.188,-0.121
-0.344,-1.152,-0.086
-0.238,-1.184,-0.035
-0.25,-1.27,-0.023
-0.293,-1.258,-0.117
-0.219,-1.223,-0.207
-0.063,-1.211,-0.25
0.117,-1.191,-0.18
0.402,-1.234,0.004
0.527,-1.281,0.266
0.383,-1.266,0.461
0.266,-1.215,0.539
0.316,-1.145,0.512
0.242,-1.051,0.414
0.094,-0.953,0.301
-0.043,-0.871,0.238
-0.063,-0.789,0.254
-0.105,-0.695,0.27
-0.18,-0.668,0.27
-0.195,-0.641,0.246
-0.172,-0.613,0.211
-0.148,-0.617,0.191
-0.164,-0.652,0.168
-0.195,-0.691,0.145
-0.234,-0.73,0.082
-0.273,-0.813,-0.016
-0.363,-0.957,-0.121
-0.457,-1.09,-0.188
-0.484,-1.141,-0.191
-0.438,-1.078,-0.156
-0.375,-0.965,-0.121
-0.336,-0.844,-0.113
-0.344,-0.742,-0.156
-0.387,-0.656,-0.191
-0.434,-0.594,-0.16
-0.488,-0.602,-0.105
-0.609,-0.766,-0.074
-0.77,-0.988,-0.035
-1.012,-1.23,0.004
-1.199,-1.473,0.008
-1.172,-1.625,0.02
-0.969,-1.695,0.082
-0.695,-1.637,0.156
-0.426,-1.484,0.207
-0.211,-1.297,0.195
-0.145,-1.133,0.145
-0.168,-1.008,0.09
-0.176,-0.898,0.059
-0.188,-0.805,0.063
-0.168,-0.703,0.082
-0.191,-0.625,0.102
-0.207,-0.574,0.113
-0.23,-0.535,0.129
-0.25,-0.477,0.156
-0.281,-0.418,0.176
-0.332,-0.414,0.188
-0.371,-0.484,0.219
-0.348,-0.57,0.27
-0.313,-0.625,0.332
-0.305,-0.645,0.352
-0.344,-0.664,0.332
-0.414,-0.711,0.293
-0.484,-0.77,0.215
-0.543,-0.801,0.137
-0.676,-0.789,0.063
-0.867,-0.828,-0.031
-1,-0.863,-0.086
-0.988,-0.914,-0.102
-0.941,-0.949,-0.09
-1.043,-0.949,-0.09
-1.164,-0.953,-0.117
-1.129,-0.965,-0.168
-0.98,-1.031,-0.227
-0.762,-1.203,-0.258
-0.613,-1.359,-0.242
-0.453,-1.402,-0.188
-0.281,-1.313,-0.137
-0.215,-1.156,-0.156
-0.188,-1.051,-0.336
-0.234,-0.98,-0.488
-0.227,-0.773,-0.516
-0.215,-0.555,-0.449
-0.039,-0.34,-0.34
-0.066,-0.164,-0.273
-0.148,-0.105,-0.227
-0.219,-0.129,-0.25
-0.383,-0.246,-0.375
-0.453,-0.344,-0.363
-0.406,-0.281,-0.375
-0.438,-0.363,-0.406
-0.328,-0.461,-0.363
-0.184,-0.398,-0.398
-0.277,-0.453,-0.461
-0.387,-0.559,-0.508
-0.582,-0.617,-0.461
-0.68,-0.66,-0.504
-0.844,-0.758,-0.59
-1,-0.848,-0.699
-1.168,-0.645,-0.492
-1.352,-0.656,-0.148
-1.219,-0.742,0.102
-0.977,-0.73,0.254
-0.52,-0.68,0.27
-0.137,-0.754,0.133
0.016,-0.887,-0.133
-0.055,-0.965,-0.41
-0.273,-1.094,-0.633
-0.383,-0.996,-0.434
-0.324,-0.781,-0.184
-0.16,-0.82,-0.117
0.055,-0.84,0.094
0.141,-0.648,0.438
-0.027,-0.477,0.703
-0.734,-0.5,0.535
-1.395,-0.457,0.219
-1.273,-0.191,0.168
-1.039,0.059,0.313
-1.328,0.137,0.379
-1.379,-0.055,0.133
-1.34,-0.469,-0.105
-1.18,-0.594,-0.082
-1.133,-0.758,0.078
-1.211,-1.094,0.082
-1.129,-1.25,0.258
-1.012,-1.172,0.445
-0.977,-1.16,0.461
-0.723,-1.324,0.195
-0.262,-1.195,-0.004
-0.281,-0.902,0.156
-0.551,-1.266,0.07
-0.531,-1.648,-0.02
-0.289,-1.809,-0.063
-0.488,-1.629,0.176
-0.602,-0.836,0.16
-0.52,-1.191,0.141
-0.422,-1.168,0.043
-0.27,-1.016,0.066
-0.152,-0.902,0.059
-0.078,-0.781,0.031
0.027,-0.547,-0.027
0.059,-0.387,0.02
0.105,-0.34,0.07
0.105,-0.516,0.008
0.09,-0.691,-0.133
0.328,-1.141,-0.395
0.129,-0.867,-0.52
-0.371,-1.203,-0.547
-0.539,-1.551,-0.762
-0.816,-0.789,-0.695
-0.855,-0.727,-0.594
-0.715,-0.977,-0.465
-0.684,-1.082,-0.465
-0.48,-0.738,-0.348
-0.16,-0.457,-0.105
-0.383,-0.457,0.07
-1.09,-0.586,0.02
-1.105,-0.512,0.078
-0.777,-0.52,0.117
-0.684,-0.629,0.047
-0.746,-0.664,0.09
-0.766,-0.586,0.238
-0.734,-0.504,0.371
-0.824,-0.434,0.43
-0.941,-0.313,0.484
-1.035,-0.23,0.469
-1.047,-0.188,0.371
-0.973,-0.152,0.309
-0.844,-0.148,0.234
-0.66,-0.176,0.23
-0.539,-0.207,0.305
-0.52,-0.25,0.449
-0.645,-0.316,0.629
-0.789,-0.375,1.008
-1.094,-0.395,1.297
-1.492,-0.387,1.316
-1.84,-0.352,1.379
-1.645,-0.414,1.582
-0.48,-0.613,1.508
0.859,-0.5,0.59
1.18,-0.355,-0.227
0.578,-0.383,-0.254
0.426,-0.453,-0.105
0.289,-0.574,-0.102
-0.02,-0.758,-0.191
-0.176,-0.844,-0.262
-0.102,-0.875,-0.266
0.051,-0.91,-0.141
0.031,-1.023,0.004
-0.227,-1.227,0.176
-0.566,-1.441,0.242
-0.926,-1.547,0.27
-1.16,-1.477,0.121
-1.406,-1.309,-0.07
-1.414,-1.066,-0.223
-1.176,-0.809,-0.246
-0.777,-0.723,-0.199
-0.387,-0.68,-0.117
-0.102,-0.652,-0.078
-0.031,-0.715,-0.078
-0.109,-0.793,-0.07
-0.25,-0.867,-0.055
-0.504,-0.934,-0.117
-0.859,-0.992,-0.188
-1.082,-1.004,-0.168
-1.066,-0.973,-0.121
-0.945,-0.961,-0.102
-0.773,-0.949,-0.07
-0.641,-0.902,-0.012
-0.52,-0.855,0.066
-0.473,-0.797,0.105
-0.543,-0.742,0.098
-0.605,-0.738,0.098
-0.633,-0.793,0.105
-0.723,-0.941,0.051
-0.855,-1.133,-0.043
-0.98,-1.238,-0.105
-1.004,-1.387,-0.094
-0.969,-1.52,-0.008
-0.785,-1.605,0.098
-0.551,-1.629,0.098
-0.43,-1.602,0.051
-0.418,-1.555,0
-0.391,-1.5,-0.047
-0.359,-1.43,-0.066
-0.301,-1.316,-0.105
-0.297,-1.223,-0.117
-0.207,-1.145,-0.109
-0.113,-1.047,-0.09
-0.066,-0.922,-0.074
-0.063,-0.777,-0.094
-0.082,-0.684,-0.137
-0.145,-0.605,-0.172
-0.375,-0.57,-0.203
-0.809,-0.66,-0.219
-1.242,-0.797,-0.18
-1.609,-0.836,-0.102
-1.75,-0.844,-0.031
-1.645,-0.832,0.051
-1.395,-0.77,0.086
-1,-0.711,0.066
-0.539,-0.629,0.055
-0.125,-0.535,0.008
0.145,-0.48,-0.047
0.223,-0.488,-0.098
0.238,-0.512,-0.117
0.289,-0.527,-0.07
0.418,-0.598,0.117
0.621,-0.715,0.434
0.82,-0.82,0.777
0.828,-1.051,0.988
0.625,-1.355,1.047
0.359,-1.637,1.047
0.207,-1.938,0.961
0.043,-2.34,0.828
-0.453,-2.891,0.816
-1.723,-3.395,1.258
-2.926,-3.238,1.418
-3.484,-2.688,0.977
-3.129,-1.957,0.398
-2.719,-1.301,0.355
-2.348,-0.742,0.484
-1.863,-0.277,0.617
-1.48,0.109,0.559
-1.234,0.305,0.246
-1.168,0.375,-0.035
-1.082,0.379,-0.168
-0.836,0.402,-0.215
-0.547,0.43,-0.227
-0.34,0.398,-0.258
-0.32,0.289,-0.324
-0.363,0.098,-0.359
-0.395,-0.031,-0.391
-0.426,-0.059,-0.402
-0.508,-0.082,-0.316
-0.832,-0.172,-0.203
-1.602,-0.441,-0.164
-2.801,-1.031,0.172
-3.813,-2.41,0.668
-4.07,-3.602,1.047
-3.711,-3.379,1.496
-2.664,-3.207,1.762
-1.488,-2.887,1.613
-0.559,-2.457,1.457
0.191,-2.02,1.262
0.859,-1.582,0.949
1.453,-1.141,0.473
2.109,-0.852,0.184
2.629,-0.781,0.102
2.75,-0.949,0.113
2.367,-1.063,0.063
1.832,-0.996,0.008
1.563,-0.973,0.066
1.152,-1.121,0.227
0.68,-1.285,0.309
0.297,-1.68,0.539
-0.004,-2.5,1.121
-0.578,-3.262,1.762
-2.527,-3.457,1.809
-4.973,-2.945,1.156
-4.207,-2.305,1.086
-2.328,-1.844,0.906
-1.715,-1.398,0.496
-1.703,-0.711,0.191
-1.496,-0.395,-0.281
-1.371,-0.09,-0.52
-1.055,0.285,-0.555
-0.688,0.539,-0.68
-0.559,0.563,-0.824
-0.547,0.438,-0.797
-0.566,0.293,-0.68
-0.496,0.219,-0.566
-0.41,0.129,-0.484
-0.461,0.023,-0.402
-0.922,-0.094,-0.301
-1.855,-0.348,-0.34
-3.246,-0.977,-0.184
-4.137,-2.59,0.344
-3.969,-3.559,0.895
-3.176,-3.316,1.289
-2.34,-3.109,1.512
-1.215,-2.754,1.531
-0.238,-2.254,1.516
0.539,-1.828,1.559
1.293,-1.457,1.219
2.086,-1.082,0.656
2.734,-0.859,0.348
2.992,-0.949,0.234
2.602,-1.07,0.156
2.063,-0.949,0.117
1.484,-0.945,0.141
1.004,-1.207,0.168
0.578,-1.496,0.125
0.145,-1.77,0.137
-0.289,-2.242,0.539
-1.074,-2.992,1.277
-2.934,-3,1.328
-4.387,-2.266,0.848
-3.496,-1.738,0.758
-2.531,-1.258,0.602
-2.133,-0.895,0.266
-2.109,-0.516,0.039
-1.793,-0.379,-0.164
-1.672,-0.199,-0.383
-1.422,0.031,-0.586
-1.094,0.094,-0.762
-0.895,0.172,-0.84
-0.781,0.25,-0.766
-0.637,0.238,-0.602
-0.543,0.203,-0.457
-0.473,0.168,-0.363
-0.582,0.086,-0.316
-0.934,-0.102,-0.324
-1.629,-0.293,-0.195
-2.375,-0.848,0.156
-2.98,-1.836,0.738
-2.938,-2.715,1.16
-2.223,-2.504,1.418
-1.367,-2.105,1.566
-0.48,-1.836,1.508
0.266,-1.625,1.352
0.777,-1.383,1.059
1.047,-1.094,0.613
1.266,-0.887,0.227
1.469,-0.887,-0.02
1.523,-0.895,-0.156
1.285,-0.777,-0.254
0.984,-0.672,-0.316
0.758,-0.68,-0.348
0.695,-0.727,-0.352
0.613,-0.887,-0.387
0.367,-1.141,-0.242
0.074,-1.543,0.172
-0.477,-2.164,0.766
-2.176,-2.727,1.09
-3.883,-2.355,0.402
-3.363,-2.008,0.145
-2.262,-1.539,0.332
-1.77,-1.188,0.352
-1.734,-0.797,0.207
-1.172,-0.621,0.051
-0.816,-0.43,-0.168
-0.625,-0.23,-0.359
-0.512,-0.098,-0.492
-0.445,0.016,-0.617
-0.434,0.125,-0.754
-0.469,0.156,-0.832
-0.512,0.156,-0.758
-0.574,0.16,-0.609
-0.727,0.105,-0.547
-0.813,-0.008,-0.555
-0.844,-0.031,-0.516
-0.922,-0.047,-0.406
-1.203,-0.223,-0.25
-1.738,-0.59,-0.105
-2.246,-1.293,0.148
-2.559,-2.074,0.484
-2.465,-2.063,0.668
-2.172,-1.891,0.699
-1.809,-1.918,0.809
-1.246,-1.789,0.926
-0.707,-1.57,0.965
-0.242,-1.379,0.957
0.16,-1.18,0.902
0.457,-0.988,0.758
0.559,-0.777,0.563
0.453,-0.617,0.363
0.293,-0.531,0.074
0.223,-0.496,-0.191
0.168,-0.5,-0.371
0.113,-0.59,-0.453
0.121,-0.66,-0.5
0.055,-0.734,-0.395
-0.242,-0.816,-0.223
-0.574,-0.84,-0.164
-0.875,-0.773,-0.246
-1.191,-0.746,-0.359
-1.336,-0.766,-0.5
-1.516,-0.914,-0.641
-1.43,-0.707,-0.586
-1.066,-0.383,-0.488
-0.813,-0.176,-0.473
-0.637,-0.141,-0.508
-0.492,-0.172,-0.527
-0.418,-0.168,-0.5
-0.422,-0.129,-0.453
-0.395,-0.117,-0.398
-0.363,-0.102,-0.348
-0.379,-0.047,-0.324
-0.438,-0.02,-0.305
-0.48,-0.016,-0.285
-0.465,-0.023,-0.242
-0.422,-0.008,-0.195
-0.383,0.023,-0.152
-0.406,0.051,-0.121
-0.523,0.008,-0.07
-0.625,-0.031,-0.035
-0.762,-0.055,0.051
-0.914,-0.063,0.156
-1.027,-0.102,0.234
-1.109,-0.152,0.285
-1.254,-0.172,0.281
-1.359,-0.156,0.258
-1.438,-0.137,0.273
-1.461,-0.137,0.359
-1.395,-0.176,0.477
-1.238,-0.27,0.605
-1.191,-0.402,0.719
-1.238,-0.496,0.836
-1.344,-0.52,0.887
-1.523,-0.473,0.824
-1.758,-0.395,0.691
-1.879,-0.324,0.574
-1.871,-0.355,0.508
-1.828,-0.504,0.512
-1.766,-0.66,0.531
-1.707,-0.73,0.559
-1.684,-0.746,0.523
-1.621,-0.77,0.441
-1.508,-0.758,0.379
-1.293,-0.684,0.371
-1.07,-0.559,0.387
-0.93,-0.426,0.395
-0.887,-0.316,0.363
-0.824,-0.211,0.328
-0.777,-0.094,0.305
-0.738,0.008,0.258
-0.785,0.074,0.176
-0.859,0.109,0.063
-0.789,0.117,0.031
-0.629,0.133,0.031
-0.492,0.16,-0.008
-0.465,0.152,-0.109
-0.52,0.137,-0.191
-0.539,0.109,-0.223
-0.496,0.133,-0.215
-0.363,0.211,-0.203
-0.313,0.313,-0.305
-0.52,0.371,-0.449
-0.723,0.398,-0.574
-0.621,0.422,-0.645
-0.469,0.477,-0.66
-0.422,0.516,-0.66
-0.422,0.457,-0.676
-0.43,0.395,-0.676
-0.398,0.367,-0.719
-0.371,0.363,-0.777
-0.402,0.355,-0.762
-0.383,0.332,-0.645
-0.305,0.313,-0.555
-0.242,0.305,-0.563
-0.262,0.293,-0.637
-0.301,0.289,-0.656
-0.402,0.273,-0.656
-0.441,0.246,-0.711
-0.41,0.227,-0.785
-0.41,0.164,-0.832
-0.383,0.059,-0.84
-0.23,-0.027,-0.82
-0.176,-0.055,-0.82
-0.211,-0.02,-0.832
-0.152,0.027,-0.848
-0.059,0.082,-0.863
-0.004,0.09,-0.883
-0.031,0.055,-0.898
-0.094,-0.016,-0.926
-0.168,-0.086,-0.992
-0.258,-0.129,-1.039
-0.305,-0.109,-1.039
-0.32,-0.07,-1.027
-0.285,-0.074,-1.012
-0.277,-0.051,-0.977
-0.316,0,-0.926
-0.328,0.027,-0.941
-0.309,-0.016,-0.945
-0.281,-0.043,-0.914
-0.262,0.027,-0.875
-0.238,0.066,-0.957
-0.195,-0.004,-1.008
-0.168,-0.047,-1.012
-0.16,-0.051,-0.984
-0.172,0.004,-0.922
-0.277,0.059,-0.926
-0.289,0.027,-1.027
-0.199,-0.008,-1.004
-0.133,0.051,-0.953
-0.086,0.109,-0.953
-0.125,0.172,-1
-0.184,0.203,-1.074
-0.176,0.102,-1.09
-0.219,0,-1.086
-0.164,-0.063,-1.004
-0.023,0.035,-0.93
0.055,0.18,-0.93
0.031,0.145,-0.988
-0.074,0.09,-0.992
-0.184,0.098,-0.945
-0.32,0.117,-0.945
-0.449,0.117,-0.941
-0.539,0.156,-1.023
-0.547,0.172,-1.168
-0.398,0.113,-1.188
-0.258,0.023,-1.16
-0.219,-0.035,-1.121
-0.316,-0.035,-1.027
-0.262,-0.023,-0.996
-0.215,-0.043,-1.047
-0.266,-0.039,-1.012
-0.305,0.031,-1.016
-0.266,0.082,-0.973
-0.438,0.145,-0.813
-0.68,0.234,-0.641
-0.781,0.316,-0.457
-0.805,0.336,-0.465
-0.824,0.219,-0.598
-0.805,0.051,-0.773
-0.734,0.008,-0.938
-0.512,-0.082,-1.086
-0.492,-0.133,-1.082
-0.57,-0.184,-1.027
-0.461,-0.223,-0.949
-0.277,-0.184,-0.836
-0.285,-0.133,-0.801
-0.41,-0.203,-0.816
-0.426,-0.238,-0.824
-0.434,-0.211,-0.809
-0.488,-0.191,-0.77
-0.527,-0.203,-0.707
-0.527,-0.176,-0.664
-0.57,-0.156,-0.637
-0.582,-0.16,-0.656
-0.586,-0.18,-0.719
-0.605,-0.168,-0.785
-0.656,-0.094,-0.824
-0.676,-0.031,-0.836
-0.699,0,-0.832
-0.684,0.027,-0.824
-0.699,0.031,-0.801
-0.766,0.016,-0.828
-0.781,-0.023,-0.848
-0.762,-0.027,-0.879
-0.734,0.004,-0.891
-0.648,0.059,-0.875
-0.629,0.105,-0.859
-0.625,0.113,-0.848
-0.625,0.16,-0.809
-0.688,0.238,-0.773
-0.742,0.234,-0.754
-0.758,0.195,-0.758
-0.727,0.18,-0.746
-0.73,0.16,-0.719
-0.75,0.105,-0.688
-0.742,0.035,-0.656
-0.762,-0.012,-0.625
-0.781,-0.051,-0.598
-0.738,-0.086,-0.566
-0.691,-0.141,-0.508
-0.801,-0.246,-0.492
-0.957,-0.422,-0.473
-0.973,-0.586,-0.461
-1.023,-0.707,-0.441
-0.98,-0.813,-0.434
-0.777,-0.875,-0.41
-0.555,-0.883,-0.383
-0.316,-0.852,-0.348
-0.105,-0.766,-0.285
-0.012,-0.668,-0.254
-0.102,-0.633,-0.258
-0.246,-0.695,-0.27
-0.41,-0.766,-0.313
-0.563,-0.836,-0.344
-0.578,-0.871,-0.363
-0.516,-0.848,-0.371
-0.418,-0.813,-0.371
-0.34,-0.793,-0.375
-0.27,-0.816,-0.406
-0.27,-0.859,-0.43
-0.219,-0.891,-0.414
-0.164,-0.84,-0.371
-0.152,-0.809,-0.332
-0.16,-0.77,-0.313
-0.156,-0.75,-0.301
-0.152,-0.75,-0.281
-0.156,-0.773,-0.25
-0.203,-0.77,-0.223
-0.258,-0.75,-0.203
-0.297,-0.762,-0.184
-0.297,-0.789,-0.176
-0.277,-0.813,-0.172
-0.266,-0.832,-0.16
-0.254,-0.867,-0.141
-0.27,-0.891,-0.133
-0.297,-0.906,-0.141
-0.328,-0.906,-0.164
-0.359,-0.91,-0.191
-0.352,-0.914,-0.188
-0.309,-0.914,-0.16
-0.266,-0.941,-0.102
-0.219,-0.996,-0.027
-0.188,-1.047,0.031
-0.188,-1.121,0.059
-0.23,-1.188,0.074
-0.316,-1.16,0.086
-0.387,-1.066,0.105
-0.406,-1.023,0.16
-0.398,-1.031,0.203
-0.355,-1.043,0.211
-0.289,-1.059,0.207
-0.23,-1.055,0.195
-0.211,-1.039,0.188
-0.215,-0.98,0.16
-0.207,-0.934,0.125
-0.18,-0.906,0.098
-0.148,-0.887,0.082
-0.129,-0.859,0.086
-0.133,-0.859,0.094
-0.188,-0.891,0.094
-0.25,-0.934,0.082
-0.301,-0.965,0.059
-0.355,-1.012,0.035
-0.395,-1.063,0.047
-0.41,-1.105,0.078
-0.418,-1.129,0.094
-0.414,-1.164,0.094
-0.418,-1.184,0.078
-0.414,-1.184,0.035
-0.383,-1.18,-0.012
-0.34,-1.18,-0.02
-0.293,-1.176,-0.02
-0.27,-1.156,-0.02
-0.25,-1.148,-0.07
-0.266,-1.16,-0.145
-0.262,-1.133,-0.156
-0.238,-1.098,-0.137
-0.25,-1.063,-0.203
-0.27,-1.023,-0.34
-0.223,-0.953,-0.414
-0.16,-0.859,-0.41
-0.121,-0.754,-0.391
-0.137,-0.668,-0.391
-0.203,-0.563,-0.441
-0.305,-0.434,-0.41
-0.25,-0.293,-0.438
-0.32,-0.23,-0.523
-0.473,-0.227,-0.535
-0.543,-0.195,-0.406
-0.582,-0.148,-0.242
-0.5,-0.125,-0.266
-0.465,-0.199,-0.355
-0.492,-0.336,-0.344
-0.59,-0.43,-0.324
-0.93,-0.535,-0.418
-0.859,-0.746,-0.602
-0.488,-0.867,-0.73
-0.465,-0.852,-0.793
-0.438,-0.789,-0.859
-0.418,-0.754,-0.844
-0.363,-0.738,-0.816
-0.285,-0.742,-0.898
-0.254,-0.75,-1.012
-0.223,-0.707,-1.059
-0.137,-0.566,-0.949
-0.066,-0.52,-0.824
-0.156,-0.543,-0.75
-0.238,-0.57,-0.762
-0.207,-0.633,-0.695
-0.07,-0.668,-0.539
-0.121,-0.707,-0.57
-0.262,-0.789,-0.637
-0.246,-0.82,-0.648
-0.082,-0.82,-0.598
-0.016,-0.836,-0.574
-0.047,-0.871,-0.637
-0.293,-0.918,-0.664
-0.258,-0.953,-0.727
-0.102,-0.883,-0.816
-0.152,-0.844,-0.977
-0.008,-0.754,-1.016
0.102,-0.617,-0.945
0.066,-0.551,-0.848
0.129,-0.492,-0.676
-0.039,-0.535,-0.742
-0.199,-0.617,-0.781
-0.199,-0.609,-0.75
-0.199,-0.609,-0.738
-0.273,-0.656,-0.813
-0.266,-0.684,-0.762
-0.121,-0.605,-0.652
-0.113,-0.613,-0.668
-0.051,-0.648,-0.641
-0.07,-0.676,-0.703
-0.031,-0.668,-0.688
0.02,-0.605,-0.68
-0.059,-0.582,-0.672
-0.039,-0.547,-0.637
-0.09,-0.535,-0.656
-0.102,-0.539,-0.691
-0.152,-0.543,-0.746
-0.176,-0.527,-0.785
-0.172,-0.531,-0.785
-0.156,-0.531,-0.773
-0.121,-0.547,-0.75
-0.273,-0.543,-0.715
-0.277,-0.57,-0.66
-0.414,-0.582,-0.633
-0.375,-0.617,-0.672
-0.219,-0.59,-0.699
-0.246,-0.566,-0.742
-0.129,-0.563,-0.684
0.02,-0.57,-0.688
-0.207,-0.52,-0.703
-0.305,-0.523,-0.695
-0.367,-0.441,-0.586
-0.121,-0.449,-0.578
-0.215,-0.52,-0.648
-0.418,-0.797,-1.121
-1.105,-0.676,-1.227
-0.438,-0.547,-0.961
-0.242,-0.465,-0.766
-0.086,-0.508,-0.684
0.168,-0.613,-0.746
-0.008,-0.652,-0.918
-0.129,-0.66,-0.961
-0.258,-0.605,-0.926
-0.477,-0.559,-0.941
-0.387,-0.512,-0.945
-0.383,-0.523,-0.941
-0.254,-0.469,-0.93
-0.273,-0.426,-0.871
-0.348,-0.445,-0.711
-0.176,-0.629,-0.719
-0.113,-0.754,-0.73
0.039,-0.723,-0.715
-0.039,-0.703,-0.734
-0.25,-0.508,-0.848
-0.496,-0.52,-0.914
-0.172,-0.504,-0.898
-0.152,-0.488,-0.793
-0.27,-0.5,-0.695
-0.352,-0.488,-0.73
-0.285,-0.547,-0.797
-0.113,-0.613,-0.832
-0.148,-0.609,-0.84
-0.215,-0.609,-0.813
-0.281,-0.586,-0.813
-0.309,-0.523,-0.836
-0.289,-0.484,-0.848
-0.188,-0.555,-0.813
0.121,-0.66,-0.746
-0.102,-0.766,-0.734
-0.047,-0.77,-0.777
-0.078,-0.734,-0.805
-0.145,-0.688,-0.82
-0.172,-0.641,-0.809
-0.176,-0.625,-0.789
-0.246,-0.688,-0.801
-0.273,-0.715,-0.777
-0.293,-0.727,-0.695
-0.258,-0.816,-0.684
-0.379,-0.844,-0.707
-0.41,-0.891,-0.652
-0.5,-0.875,-0.586
-0.52,-0.813,-0.512
-0.492,-0.73,-0.492
-0.469,-0.625,-0.492
-0.383,-0.535,-0.438
-0.277,-0.457,-0.434
-0.219,-0.418,-0.48
-0.164,-0.41,-0.469
-0.117,-0.41,-0.457
-0.145,-0.445,-0.5
-0.199,-0.488,-0.566
-0.219,-0.539,-0.574
-0.18,-0.582,-0.523
-0.199,-0.629,-0.527
-0.254,-0.707,-0.574
-0.266,-0.801,-0.625
-0.207,-0.891,-0.605
-0.125,-0.973,-0.504
-0.129,-1.051,-0.418
-0.227,-1.145,-0.391
-0.297,-1.211,-0.371
-0.285,-1.254,-0.348
-0.219,-1.297,-0.316
-0.184,-1.352,-0.285
-0.18,-1.383,-0.254
-0.203,-1.328,-0.27
-0.254,-1.191,-0.352
-0.273,-1.055,-0.461
-0.234,-0.992,-0.559
-0.137,-0.973,-0.586
0.004,-0.945,-0.512
0.164,-0.91,-0.406
0.324,-0.879,-0.301
0.453,-0.902,-0.246
0.504,-0.949,-0.211
0.457,-0.969,-0.18
0.375,-0.953,-0.16
0.277,-0.914,-0.156
0.211,-0.879,-0.152
0.168,-0.844,-0.156
0.141,-0.809,-0.191
0.137,-0.785,-0.23
0.184,-0.785,-0.258
0.23,-0.793,-0.23
0.266,-0.813,-0.164
0.27,-0.84,-0.105
0.258,-0.84,-0.07
0.238,-0.816,-0.066
0.184,-0.801,-0.07
0.133,-0.82,-0.082
0.086,-0.848,-0.086
0.035,-0.848,-0.102
-0.004,-0.836,-0.117
-0.016,-0.84,-0.133
-0.031,-0.828,-0.137
-0.035,-0.813,-0.148
-0.051,-0.793,-0.156
-0.059,-0.766,-0.18
-0.09,-0.77,-0.188
-0.105,-0.766,-0.195
-0.121,-0.785,-0.195
-0.137,-0.801,-0.203
-0.164,-0.805,-0.184
-0.188,-0.816,-0.148
-0.215,-0.852,-0.109
-0.281,-0.895,-0.078
-0.359,-0.926,-0.059
-0.441,-0.938,-0.066
-0.523,-0.941,-0.094
-0.566,-1.008,-0.086
-0.617,-1.133,-0.078
-0.703,-1.238,-0.156
-0.906,-1.352,-0.293
-1.121,-1.426,-0.414
-1.172,-1.477,-0.434
-1.016,-1.539,-0.352
-0.734,-1.598,-0.234
-0.469,-1.605,-0.129
-0.258,-1.539,-0.063
-0.141,-1.453,-0.043
-0.105,-1.363,-0.047
-0.086,-1.238,-0.047
-0.109,-1.098,-0.047
-0.148,-0.98,-0.027
-0.227,-0.863,-0.02
-0.301,-0.754,-0.012
-0.391,-0.664,0.008
-0.488,-0.586,0.039
-0.621,-0.566,0.07
-0.695,-0.543,0.105
-0.719,-0.531,0.137
-0.727,-0.527,0.137
-0.773,-0.586,0.113
-0.813,-0.641,0.113
-0.824,-0.645,0.133
-0.844,-0.633,0.141
-0.832,-0.648,0.102
-0.793,-0.68,0.051
-0.762,-0.707,0.004
-0.719,-0.738,-0.027
-0.695,-0.766,-0.055
-0.633,-0.754,-0.074
-0.539,-0.707,-0.086
-0.469,-0.703,-0.082
-0.504,-0.723,-0.113
-0.586,-0.727,-0.16
-0.695,-0.703,-0.203
-0.754,-0.68,-0.234
-0.789,-0.645,-0.273
-0.84,-0.605,-0.332
-0.871,-0.652,-0.418
-0.891,-0.773,-0.473
-0.848,-0.84,-0.477
-0.754,-0.777,-0.473
-0.648,-0.691,-0.477
-0.586,-0.605,-0.473
-0.566,-0.5,-0.457
-0.645,-0.418,-0.426
-0.758,-0.398,-0.449
-0.789,-0.387,-0.469
-0.758,-0.367,-0.422
-0.77,-0.344,-0.34
-0.844,-0.344,-0.289
-0.902,-0.332,-0.262
-0.918,-0.297,-0.262
-0.906,-0.266,-0.254
-0.895,-0.25,-0.234
-0.898,-0.238,-0.23
-0.891,-0.211,-0.227
-0.867,-0.164,-0.195
-0.871,-0.109,-0.152
-0.898,-0.063,-0.129
-0.914,-0.023,-0.129
-0.934,0,-0.133
-0.949,-0.055,-0.121
-0.949,-0.141,-0.121
-1.012,-0.168,-0.094
-1.031,-0.207,-0.039
-1.035,-0.254,0.063
-1.109,-0.34,0.121
-1.215,-0.484,0.129
-1.145,-0.641,-0.012
-1.078,-0.57,-0.133
-1.102,-0.5,-0.324
-1.188,-0.48,-0.441
-1.223,-0.551,-0.383
-1.191,-0.617,-0.176
-1.125,-0.559,0.02
-1.125,-0.496,0.102
-1.039,-0.426,0.16
-0.992,-0.379,0.156
-1.031,-0.313,0.07
-1.094,-0.23,-0.016
-1.094,-0.188,-0.035
-1.051,-0.148,-0.117
-1.055,-0.066,-0.184
-1.008,-0.016,-0.219
-0.965,0.012,-0.246
-0.895,0.027,-0.266
-0.816,0.027,-0.254
-0.781,0.012,-0.207
-0.766,-0.027,-0.168
-0.773,-0.035,-0.191
-0.797,-0.016,-0.27
-0.719,0.031,-0.313
-0.605,0.074,-0.273
-0.59,0.113,-0.203
-0.668,0.117,-0.16
-0.742,0.16,-0.117
-0.828,0.145,-0.137
-0.879,0.188,-0.16
-0.867,0.23,-0.168
-0.93,0.266,-0.199
-0.973,0.301,-0.234
-1.004,0.352,-0.262
-1.047,0.348,-0.266
-1.102,0.309,-0.336
-1.113,0.273,-0.453
-1.113,0.223,-0.539
-1.133,0.164,-0.59
-1.203,0.121,-0.578
-1.219,0.113,-0.551
-1.211,0.105,-0.547
-1.184,0.074,-0.574
-1.176,0.02,-0.637
-1.176,-0.066,-0.691
-1.133,-0.156,-0.652
-1.023,-0.191,-0.59
-0.926,-0.195,-0.559
-0.859,-0.227,-0.547
-0.805,-0.246,-0.539
-0.82,-0.215,-0.516
-0.82,-0.18,-0.473
-0.766,-0.141,-0.449
-0.676,-0.086,-0.422
-0.621,-0.039,-0.414
-0.594,-0.004,-0.395
-0.605,0.039,-0.336
-0.625,0.051,-0.301
-0.613,0.078,-0.285
-0.602,0.105,-0.293
-0.605,0.125,-0.297
-0.582,0.141,-0.293
-0.543,0.141,-0.293
-0.516,0.164,-0.297
-0.516,0.203,-0.316
-0.531,0.234,-0.379
-0.531,0.285,-0.402
-0.523,0.32,-0.414
-0.535,0.359,-0.41
-0.617,0.402,-0.453
-0.613,0.453,-0.488
-0.598,0.496,-0.527
-0.672,0.539,-0.527
-0.73,0.602,-0.516
-0.746,0.641,-0.504
-0.723,0.633,-0.496
-0.832,0.602,-0.504
-0.934,0.551,-0.52
-0.949,0.551,-0.473
-1.004,0.59,-0.391
-1.148,0.625,-0.266
-1.277,0.645,-0.199
-1.371,0.617,-0.246
-1.516,0.41,-0.285
-1.496,0.191,-0.289
-1.379,0.184,-0.23
-1.398,0.211,-0.137
-1.371,0.141,-0.07
-1.238,0.07,-0.051
-1.117,0.008,-0.059
-1.063,-0.016,-0.055
-1.031,-0.004,-0.051
-0.938,0.023,-0.02
-0.883,0.066,-0.004
-0.813,0.07,-0.023
-0.73,0.09,-0.059
-0.688,0.133,-0.059
-0.676,0.152,-0.059
-0.688,0.184,-0.035
-0.715,0.203,-0.031
-0.773,0.207,-0.051
-0.816,0.188,-0.07
-0.879,0.184,-0.098
-0.938,0.188,-0.113
-1.035,0.172,-0.113
-1.145,0.148,-0.145
-1.238,0.137,-0.184
-1.309,0.117,-0.191
-1.367,0.102,-0.195
-1.445,0.09,-0.215
-1.457,0.059,-0.25
-1.324,0,-0.188
-1.27,-0.031,-0.137
-1.254,0.016,-0.113
-1.168,0.016,-0.16
-1.035,-0.02,-0.234
-0.91,-0.047,-0.273
-0.824,-0.008,-0.273
-0.762,0.031,-0.246
-0.738,0.043,-0.234
-0.742,0.078,-0.242
-0.734,0.125,-0.254
-0.715,0.156,-0.23
-0.707,0.172,-0.203
-0.676,0.207,-0.172
-0.609,0.238,-0.148
-0.57,0.262,-0.129
-0.559,0.273,-0.117
-0.535,0.309,-0.098
-0.543,0.332,-0.094
-0.578,0.359,-0.09
-0.621,0.406,-0.148
-0.68,0.453,-0.184
-0.77,0.488,-0.195
-0.867,0.52,-0.199
-0.953,0.543,-0.18
-1.047,0.563,-0.195
-1.094,0.551,-0.227
-1.09,0.523,-0.223
-1.117,0.527,-0.219
-1.129,0.566,-0.211
-1.125,0.586,-0.199
-1.164,0.602,-0.164
-1.238,0.605,-0.145
-1.316,0.563,-0.109
-1.414,0.434,-0.102
-1.371,0.34,-0.074
-1.258,0.289,-0.031
-1.148,0.262,0.02
-1.012,0.23,0.059
-0.926,0.191,0.07
-0.871,0.141,0.043
-0.801,0.105,0.023
-0.742,0.109,0.035
-0.699,0.109,0.043
-0.641,0.117,0.043
-0.605,0.137,0.02
-0.617,0.156,0.012
-0.672,0.191,-0.012
-0.754,0.203,-0.047
-0.852,0.195,-0.059
-0.957,0.18,-0.074
-1.035,0.152,-0.098
-1.094,0.133,-0.117
-1.156,0.121,-0.121
-1.207,0.117,-0.125
-1.254,0.117,-0.109
-1.328,0.098,-0.109
-1.395,0.078,-0.133
-1.395,0.023,-0.156
-1.316,-0.012,-0.168
-1.227,0,-0.156
-1.148,0.043,-0.137
-1.094,0.09,-0.098
-1.027,0.145,-0.121
-0.996,0.168,-0.332
-0.992,0.102,-0.551
-0.969,0.07,-0.52
-0.977,0.148,-0.293
-0.949,0.234,-0.117
-0.867,0.215,-0.152
-0.719,0.133,-0.289
-0.625,0.129,-0.324
-0.586,0.168,-0.207
-0.543,0.211,-0.098
-0.551,0.219,-0.043
-0.559,0.215,-0.094
-0.547,0.223,-0.129
-0.566,0.262,-0.129
-0.609,0.301,-0.098
-0.641,0.355,-0.102
-0.711,0.414,-0.129
-0.801,0.461,-0.191
-0.91,0.512,-0.215
-1.055,0.559,-0.219
-1.141,0.566,-0.234
-1.188,0.543,-0.258
-1.191,0.488,-0.262
-1.133,0.484,-0.234
-1.074,0.516,-0.168
-1.07,0.555,-0.098
-1.094,0.582,-0.063
-1.168,0.586,-0.059
-1.25,0.563,-0.059
-1.367,0.5,-0.027
-1.426,0.391,-0.02
-1.359,0.336,-0.004
-1.223,0.297,-0.031
-1.043,0.262,-0.055
-0.918,0.242,-0.031
-0.875,0.223,0.012
-0.867,0.223,0.023
-0.848,0.191,-0.008
-0.844,0.164,-0.059
-0.781,0.168,-0.07
-0.715,0.18,-0.043
-0.652,0.199,-0.023
-0.59,0.203,-0.027
-0.551,0.199,-0.027
-0.578,0.211,-0.055
-0.582,0.246,-0.063
-0.617,0.289,-0.063
-0.672,0.324,-0.059
-0.754,0.367,-0.043
-0.848,0.395,-0.055
-0.957,0.391,-0.086
-1.078,0.371,-0.109
-1.207,0.344,-0.094
-1.297,0.332,-0.078
-1.402,0.316,-0.074
-1.473,0.316,-0.066
-1.477,0.305,-0.07
-1.438,0.25,-0.117
-1.332,0.195,-0.145
-1.227,0.18,-0.18
-1.098,0.164,-0.23
-1.035,0.148,-0.266
-1.023,0.125,-0.258
-1.02,0.117,-0.23
-1.012,0.125,-0.207
-0.984,0.156,-0.207
-0.895,0.188,-0.207
-0.82,0.223,-0.211
-0.754,0.285,-0.191
-0.703,0.313,-0.18
-0.652,0.316,-0.172
-0.609,0.348,-0.16
-0.578,0.359,-0.145
-0.566,0.371,-0.137
-0.582,0.387,-0.137
-0.605,0.414,-0.137
-0.656,0.438,-0.137
-0.754,0.477,-0.145
-0.832,0.523,-0.129
-0.879,0.57,-0.109
-0.906,0.594,-0.109
-0.91,0.598,-0.148
-0.91,0.598,-0.16
-0.922,0.609,-0.152
-0.953,0.652,-0.141
-1.004,0.688,-0.168
-1.055,0.727,-0.23
-1.109,0.758,-0.262
-1.203,0.77,-0.254
-1.34,0.727,-0.234
-1.43,0.641,-0.219
-1.359,0.555,-0.203
-1.191,0.484,-0.176
-0.992,0.43,-0.129
-0.832,0.391,-0.051
-0.836,0.383,0.027
-0.871,0.367,0.043
-0.887,0.344,-0.02
-0.879,0.336,-0.082
-0.828,0.34,-0.105
-0.707,0.328,-0.09
-0.621,0.332,-0.074
-0.598,0.336,-0.09
-0.543,0.336,-0.133
-0.531,0.352,-0.121
-0.551,0.391,-0.148
-0.594,0.426,-0.195
-0.664,0.461,-0.223
-0.727,0.52,-0.195
-0.789,0.566,-0.164
-0.836,0.594,-0.184
-0.891,0.609,-0.184
-0.93,0.641,-0.164
-0.965,0.691,-0.188
-1.051,0.723,-0.277
-1.172,0.738,-0.348
-1.238,0.789,-0.41
-1.27,0.832,-0.469
-1.242,0.813,-0.57
-1.168,0.816,-0.625
-1.188,0.855,-0.594
-1.266,0.887,-0.477
-1.266,0.848,-0.422
-1.141,0.789,-0.344
-1,0.664,-0.367
-0.762,0.441,-0.504
-0.723,0.207,-0.641
-0.727,0.035,-0.645
-0.594,0.016,-0.551
-0.422,0.039,-0.379
-0.215,0.016,-0.188
-0.137,-0.02,-0.086
-0.121,-0.027,-0.051
-0.07,0.008,0.023
-0.004,0.047,0.113
0.016,0.086,0.129
-0.004,0.137,0.098
-0.023,0.195,0.094
-0.086,0.262,0.105
-0.188,0.332,0.074
-0.289,0.426,-0.02
-0.367,0.539,-0.137
-0.473,0.66,-0.227
-0.664,0.801,-0.348
-0.941,0.918,-0.457
-1.23,1,-0.504
-1.434,1.07,-0.488
-1.563,1.113,-0.414
-1.578,1.117,-0.359
-1.547,1.066,-0.336
-1.41,0.965,-0.316
-1.195,0.871,-0.281
-1.031,0.816,-0.223
-0.984,0.801,-0.141
-1.02,0.789,-0.051
-1.129,0.754,0.004
-1.281,0.652,0.012
-1.32,0.5,-0.055
-1.219,0.367,-0.121
-1.102,0.289,-0.148
-1.027,0.285,-0.133
-0.996,0.305,-0.102
-1,0.27,-0.109
-0.965,0.223,-0.148
-0.902,0.164,-0.211
-0.828,0.098,-0.258
-0.762,0.051,-0.289
-0.723,0.031,-0.301
-0.656,0.031,-0.309
-0.566,0.035,-0.313
-0.48,0.039,-0.301
-0.43,0.063,-0.305
-0.402,0.078,-0.359
-0.367,0.086,-0.402
-0.281,0.113,-0.402
-0.262,0.148,-0.352
-0.492,0.148,-0.289
-0.887,0.129,-0.25
-1.191,0.141,-0.23
-1.34,0.176,-0.199
-1.414,0.195,-0.172
-1.441,0.176,-0.172
-1.414,0.16,-0.188
-1.348,0.152,-0.211
-1.277,0.148,-0.246
-1.215,0.129,-0.25
-1.172,0.09,-0.262
-1.152,0.039,-0.246
-1.184,0.016,-0.215
-1.215,-0.008,-0.172
-1.227,-0.043,-0.133
-1.254,-0.066,-0.09
-1.293,-0.113,-0.055
-1.289,-0.141,-0.063
-1.23,-0.168,-0.121
-1.094,-0.18,-0.211
-0.969,-0.176,-0.293
-0.902,-0.152,-0.324
-0.891,-0.148,-0.344
-0.871,-0.16,-0.328
-0.852,-0.172,-0.305
-0.813,-0.148,-0.277
-0.754,-0.109,-0.258
-0.719,-0.066,-0.266
-0.695,-0.055,-0.285
-0.676,-0.066,-0.32
-0.672,-0.078,-0.344
-0.652,-0.082,-0.344
-0.621,-0.074,-0.336
-0.602,-0.074,-0.309
-0.594,-0.074,-0.281
-0.586,-0.082,-0.262
-0.566,-0.082,-0.238
-0.535,-0.082,-0.227
-0.48,-0.082,-0.211
-0.406,-0.082,-0.176
-0.355,-0.047,-0.113
-0.43,0.008,-0.051
-0.719,0.027,0.008
-1.063,0.02,-0.008
-1.324,0.004,-0.051
-1.473,-0.027,-0.117
-1.539,-0.09,-0.207
-1.512,-0.145,-0.297
-1.449,-0.16,-0.34
-1.363,-0.16,-0.336
-1.266,-0.16,-0.313
-1.176,-0.168,-0.266
-1.137,-0.156,-0.195
-1.215,-0.121,-0.137
-1.367,-0.129,-0.121
-1.551,-0.207,-0.152
-1.629,-0.355,-0.223
-1.438,-0.492,-0.27
-1.141,-0.555,-0.258
-0.855,-0.508,-0.195
-0.738,-0.418,-0.16
-0.766,-0.383,-0.172
-0.813,-0.441,-0.203
-0.84,-0.508,-0.227
-0.836,-0.531,-0.223
-0.773,-0.496,-0.203
-0.652,-0.438,-0.176
-0.547,-0.375,-0.164
-0.469,-0.316,-0.16
-0.43,-0.273,-0.16
-0.418,-0.227,-0.133
-0.402,-0.176,-0.113
-0.422,-0.113,-0.105
-0.473,-0.07,-0.094
-0.539,-0.047,-0.086
-0.68,-0.039,-0.094
-0.926,-0.09,-0.109
-1.168,-0.164,-0.117
-1.258,-0.262,-0.109
-1.262,-0.352,-0.102
-1.242,-0.438,-0.105
-1.215,-0.516,-0.125
-1.188,-0.559,-0.168
-1.152,-0.563,-0.199
-1.145,-0.539,-0.215
-1.176,-0.527,-0.215
-1.195,-0.543,-0.203
-1.191,-0.578,-0.211
-1.16,-0.602,-0.199
-1.129,-0.594,-0.156
-1.152,-0.582,-0.145
-1.18,-0.598,-0.168
-1.145,-0.66,-0.23
-1,-0.711,-0.297
-0.801,-0.695,-0.324
-0.656,-0.625,-0.336
-0.605,-0.578,-0.324
-0.621,-0.535,-0.285
-0.668,-0.496,-0.25
-0.664,-0.418,-0.23
-0.633,-0.336,-0.242
-0.582,-0.258,-0.277
-0.582,-0.191,-0.316
-0.629,-0.152,-0.363
-0.676,-0.137,-0.391
-0.684,-0.133,-0.391
-0.68,-0.125,-0.375
-0.684,-0.094,-0.355
-0.691,-0.066,-0.344
-0.707,-0.051,-0.344
-0.762,-0.051,-0.359
-0.793,-0.047,-0.355
-0.805,-0.039,-0.328
-0.789,-0.02,-0.297
-0.762,0.023,-0.273
-0.738,0.063,-0.262
-0.734,0.078,-0.258
-0.715,0.102,-0.254
-0.688,0.133,-0.258
-0.691,0.16,-0.262
-0.723,0.164,-0.273
-0.723,0.152,-0.293
-0.738,0.141,-0.32
-0.781,0.145,-0.344
-0.848,0.133,-0.379
-0.902,0.094,-0.43
-0.902,0.047,-0.492
-0.883,0.02,-0.527
-0.859,-0.012,-0.555
-0.84,-0.063,-0.559
-0.785,-0.125,-0.543
-0.758,-0.184,-0.496
-0.77,-0.246,-0.457
-0.809,-0.285,-0.422
-0.84,-0.359,-0.355
-0.867,-0.426,-0.305
-0.93,-0.5,-0.246
-1.09,-0.566,-0.195
-1.18,-0.637,-0.145
-1.125,-0.664,-0.078
-1.02,-0.684,-0.051
-0.906,-0.691,-0.063
-0.816,-0.695,-0.098
-0.813,-0.707,-0.105
-0.84,-0.73,-0.074
-0.809,-0.734,-0.031
-0.773,-0.715,0.02
-0.785,-0.691,0.047
-0.879,-0.684,0.023
-0.91,-0.672,-0.008
-0.906,-0.629,-0.031
-0.926,-0.555,-0.047
-0.957,-0.48,-0.07
-0.965,-0.41,-0.098
-0.969,-0.371,-0.129
-0.988,-0.336,-0.152
-1.023,-0.32,-0.172
-1.023,-0.309,-0.188
-1.004,-0.285,-0.211
-0.953,-0.273,-0.25
-0.848,-0.262,-0.293
-0.738,-0.246,-0.332
-0.652,-0.238,-0.355
-0.566,-0.25,-0.324
-0.484,-0.258,-0.273
-0.523,-0.266,-0.262
-0.551,-0.281,-0.223
-0.602,-0.293,-0.199
-0.688,-0.324,-0.188
-0.688,-0.379,-0.207
-0.668,-0.434,-0.285
-0.668,-0.391,-0.367
-0.609,-0.258,-0.375
-0.551,-0.172,-0.309
-0.578,-0.234,-0.23
-0.688,-0.242,-0.199
-0.801,-0.207,-0.238
-0.875,-0.207,-0.254
-0.895,-0.23,-0.215
-0.961,-0.27,-0.191
-1.07,-0.293,-0.191
-1.09,-0.34,-0.164
-1.039,-0.402,-0.102
-1.008,-0.5,-0.023
-1.066,-0.625,0.145
-1.207,-0.691,0.32
-1.199,-0.637,0.355
-1.051,-0.504,0.242
-0.973,-0.402,0.035
-0.918,-0.336,-0.16
-0.859,-0.301,-0.258
-0.816,-0.305,-0.266
-0.789,-0.305,-0.242
-0.758,-0.27,-0.25
-0.723,-0.223,-0.266
-0.691,-0.164,-0.254
-0.656,-0.172,-0.23
-0.73,-0.172,-0.262
-0.895,-0.164,-0.309
-0.961,-0.184,-0.309
-0.957,-0.188,-0.262
-0.953,-0.191,-0.199
-0.918,-0.184,-0.117
-0.914,-0.176,-0.07
-0.945,-0.156,-0.047
-0.984,-0.125,-0.035
-1.02,-0.094,-0.027
-1.016,-0.066,0
-1,-0.047,0.086
-1.051,-0.023,0.176
-1.246,-0.004,0.219
-1.461,-0.113,0.18
-1.391,-0.238,0.176
-1.262,-0.25,0.254
-1.184,-0.203,0.352
-1.156,-0.172,0.434
-1.16,-0.188,0.461
-1.121,-0.207,0.508
-1.012,-0.207,0.543
-0.934,-0.207,0.527
-0.859,-0.203,0.473
-0.832,-0.188,0.395
-0.844,-0.164,0.316
-0.816,-0.148,0.242
-0.77,-0.137,0.199
-0.695,-0.125,0.191
-0.629,-0.117,0.203
-0.34,-0.148,0.109
-0.242,-0.25,0.113
-0.668,-0.301,0.082
-1.059,-0.18,0.207
-0.801,-0.078,0.348
-0.648,-0.039,0.453
-0.754,0.043,0.508
-0.859,0.117,0.5
-0.883,0.121,0.492
-0.848,0.105,0.492
-0.902,0.074,0.488
-1.012,0.016,0.48
-1.008,-0.043,0.453
-0.988,-0.098,0.43
-1.043,-0.105,0.426
-1.051,-0.086,0.438
-1.004,-0.098,0.508
-1.004,-0.105,0.547
-1.09,-0.141,0.5
-1.074,-0.176,0.406
-0.973,-0.195,0.324
-0.902,-0.188,0.301
-0.855,-0.18,0.32
-0.844,-0.207,0.332
-0.871,-0.219,0.313
-0.867,-0.203,0.277
-0.836,-0.188,0.23
-0.766,-0.156,0.199
-0.691,-0.098,0.203
-0.66,-0.063,0.254
-0.66,-0.016,0.316
-0.652,0.027,0.355
-0.645,0.055,0.395
-0.648,0.082,0.398
-0.734,0.094,0.355
-0.801,0.086,0.34
-0.828,0.082,0.301
-0.914,0.086,0.293
-0.941,0.09,0.324
-0.949,0.09,0.375
-0.961,0.098,0.426
-0.992,0.082,0.434
-1.02,0.055,0.402
-1.016,0.063,0.379
-0.945,0.109,0.465
-0.953,0.191,0.609
-1.039,0.27,0.762
-1.227,0.203,0.883
-1.406,-0.004,0.777
-1.266,-0.164,0.563
-1.094,-0.211,0.523
-0.949,-0.223,0.633
-0.793,-0.172,0.805
-0.676,-0.188,0.813
-0.715,-0.211,0.699
-0.707,-0.234,0.555
-0.645,-0.211,0.465
-0.598,-0.168,0.43
-0.57,-0.137,0.406
-0.527,-0.074,0.406
-0.453,-0.102,0.367
-0.523,-0.051,0.309
-0.465,-0.039,0.402
-0.535,-0.043,0.445
-0.57,0.008,0.512
-0.605,0.016,0.613
-0.723,0.035,0.633
-0.773,0.043,0.617
-0.832,0.031,0.586
-0.867,0.004,0.555
-0.879,-0.035,0.57
-0.883,-0.074,0.543
-0.926,-0.133,0.512
-0.934,-0.184,0.496
-0.926,-0.191,0.504
-0.938,-0.215,0.516
-0.941,-0.254,0.586
-0.965,-0.293,0.605
-0.969,-0.414,0.621
-0.926,-0.457,0.484
-0.898,-0.465,0.359
-0.82,-0.461,0.309
-0.781,-0.441,0.324
-0.758,-0.418,0.332
-0.766,-0.375,0.371
-0.758,-0.313,0.391
-0.746,-0.266,0.383
-0.719,-0.223,0.355
-0.645,-0.156,0.344
-0.578,-0.109,0.371
-0.531,-0.07,0.414
-0.52,-0.059,0.441
-0.523,-0.043,0.453
-0.574,-0.043,0.473
-0.641,-0.039,0.492
-0.684,-0.027,0.523
-0.75,-0.027,0.535
-0.797,-0.004,0.543
-0.816,-0.004,0.582
-0.789,-0.031,0.594
-0.84,-0.047,0.602
-0.848,-0.051,0.641
-0.855,-0.07,0.656
-0.836,-0.078,0.664
-0.891,-0.145,0.797
-0.914,-0.234,0.906
-0.91,-0.324,0.914
-0.895,-0.438,0.867
-0.871,-0.512,0.762
-0.844,-0.574,0.645
-0.746,-0.621,0.594
-0.648,-0.648,0.625
-0.559,-0.637,0.656
-0.559,-0.613,0.664
-0.535,-0.582,0.668
-0.52,-0.555,0.656
-0.492,-0.527,0.648
-0.484,-0.484,0.602
-0.477,-0.426,0.543
-0.473,-0.398,0.527
-0.461,-0.348,0.52
-0.441,-0.293,0.543
-0.457,-0.277,0.578
-0.473,-0.273,0.617
-0.48,-0.27,0.629
-0.488,-0.27,0.641
-0.523,-0.289,0.66
-0.527,-0.305,0.664
-0.547,-0.332,0.656
-0.57,-0.375,0.676
-0.59,-0.43,0.703
-0.625,-0.48,0.707
-0.652,-0.496,0.695
-0.645,-0.52,0.734
-0.652,-0.555,0.816
-0.688,-0.625,0.895
-0.738,-0.699,0.887
-0.766,-0.699,0.742
-0.777,-0.641,0.57
-0.719,-0.57,0.496
-0.641,-0.523,0.488
-0.559,-0.492,0.5
-0.477,-0.449,0.504
-0.473,-0.426,0.516
-0.473,-0.375,0.512
-0.492,-0.328,0.492
-0.508,-0.281,0.465
-0.504,-0.23,0.441
-0.52,-0.18,0.438
-0.563,-0.156,0.457
-0.578,-0.148,0.469
-0.59,-0.137,0.484
-0.652,-0.137,0.477
-0.699,-0.145,0.477
-0.758,-0.176,0.52
-0.805,-0.199,0.574
-0.828,-0.219,0.578
-0.828,-0.223,0.59
-0.824,-0.25,0.613
-0.797,-0.254,0.652
-0.789,-0.234,0.672
-0.824,-0.191,0.723
-0.859,-0.203,0.852
-0.855,-0.258,0.922
-0.863,-0.301,0.938
-0.875,-0.316,0.957
-0.883,-0.316,0.91
-0.844,-0.301,0.828
-0.766,-0.281,0.793
-0.695,-0.281,0.793
-0.66,-0.301,0.793
-0.648,-0.301,0.738
-0.621,-0.273,0.691
-0.609,-0.254,0.625
-0.617,-0.223,0.582
-0.602,-0.191,0.563
-0.605,-0.172,0.559
-0.598,-0.152,0.527
-0.586,-0.137,0.48
-0.594,-0.129,0.438
-0.605,-0.117,0.398
-0.641,-0.129,0.379
-0.656,-0.152,0.387
-0.656,-0.176,0.406
-0.641,-0.195,0.418
-0.637,-0.207,0.406
-0.609,-0.207,0.391
-0.617,-0.23,0.379
-0.633,-0.258,0.363
-0.707,-0.273,0.363
-0.797,-0.313,0.355
-0.836,-0.359,0.355
-0.867,-0.445,0.352
-0.773,-0.508,0.375
-0.641,-0.516,0.383
-0.609,-0.5,0.328
-0.68,-0.473,0.184
-0.781,-0.492,0.031
-0.832,-0.57,-0.055
-0.793,-0.633,-0.086
-0.664,-0.68,-0.063
-0.559,-0.703,-0.016
-0.461,-0.68,0.027
-0.379,-0.629,0.059
-0.324,-0.586,0.09
-0.234,-0.609,0.082
-0.246,-0.629,0.059
-0.297,-0.668,0.031
-0.363,-0.695,0.004
-0.559,-0.75,-0.055
-0.805,-0.828,-0.102
-0.926,-0.902,-0.145
-0.906,-0.898,-0.152
-0.855,-0.859,-0.152
-0.797,-0.887,-0.156
-0.75,-0.93,-0.184
-0.77,-0.977,-0.219
-0.758,-1.012,-0.25
-0.711,-1.027,-0.25
-0.637,-1.094,-0.203
-0.563,-1.262,-0.266
-0.602,-1.465,-0.43
-0.746,-1.578,-0.527
-0.828,-1.527,-0.492
-0.816,-1.438,-0.332
-0.742,-1.414,-0.188
-0.625,-1.422,-0.129
-0.527,-1.406,-0.121
-0.449,-1.305,-0.137
-0.395,-1.16,-0.152
-0.332,-1.074,-0.152
-0.266,-0.996,-0.145
-0.227,-0.922,-0.098
-0.207,-0.875,-0.133
-0.223,-0.824,-0.047
-0.164,-0.816,0.016
-0.082,-0.793,0.066
-0.063,-0.77,0.07
-0.125,-0.746,0.09
-0.141,-0.773,0.133
-0.125,-0.809,0.176
-0.137,-0.828,0.238
-0.148,-0.84,0.297
-0.137,-0.883,0.348
-0.129,-0.914,0.375
-0.129,-0.918,0.379
-0.16,-0.906,0.352
-0.152,-0.957,0.336
-0.129,-1.063,0.363
-0.145,-1.102,0.391
-0.215,-1.055,0.371
-0.316,-0.945,0.273
-0.426,-0.887,0.086
-0.531,-0.887,-0.086
-0.559,-0.957,-0.184
-0.535,-1.039,-0.23
-0.477,-1.082,-0.207
-0.426,-1.063,-0.152
-0.34,-1.008,-0.098
-0.25,-0.902,-0.078
-0.184,-0.797,-0.078
-0.133,-0.758,-0.117
-0.105,-0.746,-0.152
-0.105,-0.734,-0.176
-0.16,-0.746,-0.199
-0.234,-0.773,-0.199
-0.301,-0.809,-0.199
-0.367,-0.824,-0.195
-0.441,-0.836,-0.207
-0.504,-0.875,-0.223
-0.539,-0.91,-0.242
-0.555,-0.922,-0.242
-0.555,-0.941,-0.238
-0.559,-0.973,-0.234
-0.547,-1.008,-0.203
-0.516,-1.043,-0.137
-0.492,-1.168,-0.059
-0.535,-1.414,-0.07
-0.691,-1.59,-0.148
-0.883,-1.574,-0.184
-0.969,-1.445,-0.145
-0.918,-1.301,-0.059
-0.734,-1.27,0.004
-0.516,-1.328,0.035
-0.379,-1.367,0.031
-0.324,-1.336,0.023
-0.336,-1.293,0.012
-0.348,-1.258,-0.012
-0.344,-1.18,0.008
-0.324,-1.117,0.035
-0.309,-1.066,0.055
-0.281,-1.035,0.082
-0.227,-0.992,0.129
-0.172,-0.957,0.176
-0.121,-0.945,0.199
-0.086,-0.934,0.219
-0.07,-0.914,0.242
-0.047,-0.867,0.266
-0.012,-0.805,0.297
0.035,-0.773,0.32
0.035,-0.762,0.34
0.059,-0.781,0.359
0.078,-0.809,0.363
0.074,-0.824,0.359
0.027,-0.84,0.324
-0.02,-0.863,0.242
-0.117,-0.875,0.098
-0.234,-0.895,-0.086
-0.363,-0.957,-0.242
-0.449,-1.016,-0.363
-0.492,-1.043,-0.426
-0.508,-1.082,-0.438
-0.473,-1.168,-0.402
-0.453,-1.184,-0.352
-0.414,-1.152,-0.309
-0.34,-1.125,-0.305
-0.266,-1.102,-0.324
-0.18,-1.07,-0.352
-0.117,-1.043,-0.375
-0.117,-1.012,-0.387
-0.172,-0.984,-0.383
-0.262,-0.949,-0.359
-0.336,-0.918,-0.324
-0.391,-0.883,-0.309
-0.434,-0.855,-0.281
-0.461,-0.828,-0.254
-0.496,-0.805,-0.234
-0.523,-0.785,-0.227
-0.539,-0.77,-0.238
-0.551,-0.793,-0.246
-0.535,-0.848,-0.223
-0.496,-0.984,-0.172
-0.48,-1.238,-0.164
-0.531,-1.477,-0.176
-0.609,-1.52,-0.172
-0.652,-1.367,-0.152
-0.609,-1.203,-0.086
-0.508,-1.148,-0.004
-0.363,-1.191,0.09
-0.215,-1.258,0.176
-0.121,-1.32,0.238
-0.074,-1.375,0.258
-0.078,-1.34,0.23
-0.113,-1.281,0.191
-0.109,-1.223,0.219
0,-1.141,0.258
0.141,-1.023,0.32
0.262,-0.957,0.355
0.289,-0.906,0.383
0.328,-0.867,0.406
0.391,-0.84,0.398
0.402,-0.793,0.371
0.363,-0.746,0.309
0.352,-0.734,0.238
0.289,-0.734,0.176
0.27,-0.77,0.121
0.238,-0.871,0.063
0.195,-0.977,0.027
0.133,-0.996,0.027
0.008,-1.004,0.016
-0.129,-1.102,-0.055
-0.234,-1.203,-0.133
-0.27,-1.223,-0.176
-0.27,-1.215,-0.215
-0.273,-1.207,-0.27
-0.27,-1.188,-0.313
-0.258,-1.184,-0.309
-0.23,-1.184,-0.273
-0.191,-1.18,-0.227
-0.168,-1.156,-0.172
-0.172,-1.113,-0.129
-0.168,-1.066,-0.086
-0.16,-1.043,-0.035
-0.156,-1.023,0.004
-0.164,-0.984,0.023
-0.176,-0.957,0.02
-0.184,-0.926,0
-0.195,-0.902,-0.035
-0.199,-0.871,-0.063
-0.172,-0.852,-0.082
-0.129,-0.836,-0.09
-0.07,-0.813,-0.09
-0.023,-0.797,-0.09
0.008,-0.793,-0.098
0.031,-0.809,-0.102
0.051,-0.852,-0.113
0.055,-0.887,-0.121
0.07,-0.922,-0.148
0.086,-0.949,-0.16
0.102,-0.98,-0.168
0.125,-0.984,-0.184
0.16,-0.977,-0.191
0.188,-0.98,-0.203
0.219,-1.004,-0.211
0.246,-1.02,-0.188
0.266,-1.008,-0.168
0.285,-0.98,-0.148
0.297,-0.957,-0.133
0.305,-0.949,-0.113
0.289,-0.938,-0.082
0.277,-0.945,-0.051
0.27,-0.977,-0.02
0.262,-0.996,0.016
0.223,-0.973,0.031
0.168,-0.941,0.016
0.129,-0.945,0.004
0.086,-0.957,-0.004
0.059,-0.934,-0.02
0.035,-0.926,-0.027
0.008,-0.938,-0.02
-0.027,-0.93,-0.008
-0.09,-0.898,-0.008
-0.188,-0.91,-0.02
-0.273,-0.945,-0.027
-0.391,-0.98,-0.027
-0.5,-1.047,-0.02
-0.551,-1.113,-0.008
-0.582,-1.172,-0.004
-0.617,-1.219,0.004
-0.652,-1.27,0.031
-0.68,-1.277,0.059
-0.656,-1.199,0.09
-0.605,-1.086,0.109
-0.566,-0.973,0.113
-0.57,-0.891,0.102
-0.586,-0.828,0.066
-0.617,-0.754,0.016
-0.605,-0.66,-0.035
-0.566,-0.559,-0.086
-0.512,-0.477,-0.121
-0.449,-0.414,-0.156
-0.402,-0.379,-0.18
-0.395,-0.352,-0.207
-0.398,-0.363,-0.254
-0.418,-0.438,-0.285
-0.434,-0.547,-0.297
-0.434,-0.637,-0.25
-0.453,-0.711,-0.164
-0.512,-0.797,-0.059
-0.625,-0.91,0.004
-0.664,-1,0.023
-0.602,-1.016,0.016
-0.504,-0.965,0
-0.41,-0.879,-0.016
-0.32,-0.816,-0.02
-0.246,-0.793,0
-0.215,-0.805,0.027
-0.215,-0.824,0.063
-0.223,-0.805,0.086
-0.254,-0.813,0.086
-0.301,-0.82,0.082
-0.316,-0.871,0.09
-0.309,-0.984,0.145
-0.32,-1.102,0.188
-0.363,-1.145,0.195
-0.402,-1.137,0.191
-0.398,-1.23,0.184
-0.379,-1.434,0.234
-0.363,-1.566,0.316
-0.371,-1.488,0.344
-0.398,-1.285,0.313
-0.457,-1.066,0.238
-0.5,-0.887,0.145
-0.5,-0.738,0.063
-0.449,-0.633,0.023
-0.418,-0.578,0.02
-0.418,-0.555,0.023
-0.414,-0.539,0.039
-0.387,-0.523,0.043
-0.352,-0.508,0.066
-0.32,-0.5,0.09
-0.332,-0.496,0.105
-0.367,-0.496,0.113
-0.387,-0.465,0.105
-0.449,-0.469,0.09
-0.512,-0.559,0.082
-0.551,-0.785,0.117
-0.645,-1.168,0.16
-0.805,-1.598,0.207
-1.031,-1.863,0.266
-1.23,-1.797,0.324
-1.277,-1.609,0.305
-1.18,-1.488,0.148
-0.969,-1.395,-0.051
-0.809,-1.254,-0.203
-0.73,-1.23,-0.297
-0.672,-1.191,-0.309
-0.633,-1.117,-0.258
-0.543,-1.082,-0.184
-0.434,-1.012,-0.121
-0.305,-0.957,-0.074
-0.172,-0.926,-0.043
-0.07,-0.875,-0.027
0.004,-0.793,-0.027
0.047,-0.742,-0.023
0.066,-0.734,-0.004
0.078,-0.734,0.047
0.086,-0.707,0.117
0.051,-0.695,0.18
0.02,-0.723,0.238
-0.027,-0.777,0.305
-0.074,-0.852,0.355
-0.113,-0.883,0.383
-0.16,-0.918,0.391
-0.184,-0.984,0.422
-0.164,-1.121,0.477
-0.145,-1.227,0.527
-0.195,-1.227,0.492
-0.34,-1.121,0.328
-0.527,-1.07,0.074
-0.656,-1.078,-0.082
-0.672,-1.125,-0.148
-0.676,-1.207,-0.18
-0.707,-1.191,-0.184
-0.734,-1.09,-0.191
-0.707,-0.941,-0.238
-0.637,-0.82,-0.266
-0.539,-0.707,-0.25
-0.512,-0.625,-0.211
-0.582,-0.586,-0.164
-0.738,-0.559,-0.113
-0.969,-0.5,-0.063
-1.176,-0.434,-0.004
-1.285,-0.406,0.066
-1.293,-0.383,0.133
-1.238,-0.352,0.234
-1.227,-0.367,0.301
-1.211,-0.344,0.328
-1.152,-0.309,0.352
-1.113,-0.316,0.355
-1.098,-0.383,0.383
-1.07,-0.48,0.438
-1.07,-0.605,0.496
-1.105,-0.738,0.496
-1.145,-0.844,0.449
-1.121,-0.922,0.414
-1.023,-0.953,0.441
-0.875,-0.953,0.469
-0.766,-0.98,0.441
-0.719,-0.988,0.359
-0.684,-0.961,0.238
-0.621,-0.934,0.102
-0.531,-0.906,-0.016
-0.43,-0.871,-0.039
-0.344,-0.824,-0.031
-0.242,-0.797,-0.043
-0.172,-0.773,-0.055
-0.117,-0.734,-0.059
-0.094,-0.684,-0.059
-0.086,-0.645,-0.066
-0.082,-0.629,-0.09
-0.086,-0.629,-0.102
-0.094,-0.664,-0.094
-0.082,-0.695,-0.074
-0.074,-0.758,-0.055
-0.082,-0.84,-0.035
-0.121,-0.934,-0.027
-0.141,-1.008,0.012
-0.109,-1.133,0.109
-0.102,-1.32,0.203
-0.176,-1.477,0.199
-0.332,-1.449,0.129
-0.461,-1.332,0.051
-0.539,-1.305,-0.008
-0.605,-1.371,-0.047
-0.672,-1.461,-0.051
-0.688,-1.504,-0.027
-0.699,-1.434,0
-0.633,-1.266,0.047
-0.543,-1.078,0.07
-0.465,-0.922,0.051
-0.41,-0.813,0.027
-0.43,-0.734,0.008
-0.461,-0.715,0.008
-0.457,-0.691,0.023
-0.457,-0.668,0.02
-0.457,-0.656,0.039
-0.453,-0.617,0.047
-0.469,-0.582,0.031
-0.504,-0.559,-0.016
-0.496,-0.57,-0.047
-0.496,-0.609,-0.09
-0.531,-0.656,-0.141
-0.566,-0.707,-0.184
-0.598,-0.766,-0.211
-0.633,-0.859,-0.219
-0.629,-1.016,-0.227
-0.66,-1.262,-0.254
-0.742,-1.496,-0.215
-0.809,-1.621,-0.148
-0.832,-1.641,-0.078
-0.785,-1.516,-0.004
-0.664,-1.348,0.055
-0.512,-1.246,0.09
-0.434,-1.18,0.098
-0.441,-1.102,0.09
-0.488,-1.027,0.09
-0.535,-0.965,0.117
-0.543,-0.879,0.133
-0.496,-0.824,0.203
-0.406,-0.793,0.242
-0.383,-0.762,0.258
-0.348,-0.723,0.273
-0.316,-0.73,0.285
-0.305,-0.75,0.313
-0.309,-0.77,0.332
-0.324,-0.789,0.367
-0.309,-0.828,0.414
-0.293,-0.883,0.453
-0.273,-0.953,0.484
-0.262,-1.012,0.508
-0.242,-1.043,0.52
-0.223,-1.07,0.539
-0.203,-1.063,0.512
-0.227,-1.043,0.453
-0.25,-1.031,0.379
-0.23,-1.055,0.355
-0.207,-1.098,0.324
-0.227,-1.023,0.258
-0.273,-0.906,0.109
-0.359,-0.813,-0.113
-0.426,-0.785,-0.289
-0.457,-0.855,-0.383
-0.453,-0.992,-0.367
-0.391,-1.074,-0.316
-0.23,-1.074,-0.297
0,-1.02,-0.309
0.188,-0.926,-0.313
0.273,-0.824,-0.293
0.172,-0.754,-0.277
0.023,-0.746,-0.266
-0.137,-0.754,-0.238
-0.32,-0.789,-0.223
-0.449,-0.828,-0.207
-0.531,-0.844,-0.168
-0.598,-0.848,-0.141
-0.613,-0.871,-0.117
-0.645,-0.898,-0.094
-0.656,-0.934,-0.074
-0.66,-0.973,-0.063
-0.691,-0.996,-0.059
-0.688,-1.012,-0.031
-0.648,-1.055,-0.008
-0.652,-1.055,-0.008
-0.648,-1.031,-0.012
-0.629,-1.004,0
-0.582,-1.023,0.02
-0.602,-1.207,-0.023
-0.699,-1.383,-0.102
-0.824,-1.41,-0.184
-0.898,-1.316,-0.172
-0.809,-1.164,-0.063
-0.645,-1.098,0.031
-0.547,-1.148,0.051
-0.531,-1.25,0.035
-0.535,-1.293,0.047
-0.484,-1.25,0.086
-0.414,-1.156,0.121
-0.371,-1.051,0.121
-0.359,-0.98,0.105
-0.309,-0.922,0.102
-0.281,-0.914,0.102
-0.277,-0.914,0.094
-0.285,-0.926,0.113
-0.238,-0.953,0.145
-0.207,-0.977,0.164
-0.188,-0.973,0.195
-0.168,-0.957,0.23
-0.145,-0.941,0.246
-0.125,-0.926,0.273
-0.094,-0.91,0.309
-0.074,-0.91,0.34
-0.086,-0.922,0.363
-0.105,-0.922,0.367
-0.145,-0.895,0.352
-0.195,-0.855,0.336
-0.191,-0.91,0.348
-0.203,-0.965,0.352
-0.27,-0.871,0.313
-0.328,-0.711,0.203
-0.398,-0.656,0.031
-0.469,-0.703,-0.094
-0.469,-0.84,-0.152
-0.438,-0.988,-0.16
-0.398,-1.16,-0.133
-0.379,-1.27,-0.113
-0.34,-1.227,-0.129
-0.266,-1.094,-0.172
-0.133,-0.961,-0.234
-0.031,-0.867,-0.285
-0.02,-0.805,-0.316
-0.113,-0.801,-0.344
-0.219,-0.82,-0.328
-0.32,-0.828,-0.305
-0.41,-0.828,-0.297
-0.473,-0.82,-0.277
-0.484,-0.816,-0.277
-0.527,-0.809,-0.281
-0.57,-0.84,-0.285
-0.551,-0.855,-0.281
-0.539,-0.883,-0.262
-0.543,-0.938,-0.23
-0.52,-0.984,-0.184
-0.48,-1.023,-0.109
-0.43,-1.094,-0.008
-0.375,-1.215,0.086
-0.363,-1.387,0.082
-0.508,-1.5,-0.027
-0.691,-1.414,-0.102
-0.766,-1.234,-0.074
-0.77,-1.051,-0.012
-0.676,-0.918,0.074
-0.52,-0.883,0.137
-0.461,-0.918,0.156
-0.395,-0.938,0.18
-0.363,-0.922,0.188
-0.367,-0.867,0.195
-0.352,-0.809,0.215
-0.336,-0.754,0.25
-0.336,-0.73,0.289
-0.34,-0.707,0.316
-0.344,-0.699,0.387
-0.352,-0.719,0.465
-0.344,-0.738,0.551
-0.344,-0.734,0.621
-0.336,-0.738,0.672
-0.363,-0.762,0.688
-0.387,-0.805,0.691
-0.414,-0.84,0.703
-0.43,-0.867,0.715
-0.43,-0.898,0.742
-0.418,-0.965,0.766
-0.422,-1.02,0.758
-0.457,-1.027,0.703
-0.516,-1.004,0.617
-0.574,-0.953,0.516
-0.621,-0.914,0.445
-0.59,-0.883,0.43
-0.527,-0.895,0.43
-0.48,-0.945,0.402
-0.438,-0.992,0.359
-0.406,-1.031,0.32
-0.398,-1.059,0.281
-0.383,-1.063,0.242
-0.383,-1.051,0.215
-0.359,-1.012,0.207
-0.332,-0.965,0.188
-0.313,-0.926,0.172
-0.305,-0.887,0.148
-0.313,-0.844,0.121
-0.332,-0.816,0.094
-0.352,-0.805,0.074
-0.383,-0.785,0.078
-0.43,-0.742,0.105
-0.449,-0.68,0.125
-0.48,-0.633,0.125
-0.512,-0.621,0.121
-0.523,-0.633,0.113
-0.543,-0.656,0.117
-0.574,-0.652,0.109
-0.582,-0.641,0.09
-0.582,-0.637,0.074
-0.59,-0.668,0.074
-0.645,-0.723,0.047
-0.711,-0.785,-0.02
-0.754,-0.809,-0.086
-0.711,-0.734,-0.094
-0.602,-0.621,-0.051
-0.469,-0.563,-0.02
-0.387,-0.582,-0.004
-0.363,-0.668,-0.023
-0.383,-0.785,-0.055
-0.449,-0.879,-0.074
-0.512,-0.953,-0.094
-0.551,-0.98,-0.066
-0.543,-0.988,-0.035
-0.531,-1,-0.02
-0.504,-0.98,-0.008
-0.441,-0.941,0.008
-0.344,-0.949,0.008
-0.266,-0.953,-0.012
-0.215,-0.98,-0.004
-0.152,-1.051,0.039
-0.133,-1.137,0.109
-0.105,-1.266,0.18
-0.086,-1.406,0.223
-0.098,-1.441,0.211
-0.191,-1.273,0.137
-0.324,-1.043,0.035
-0.352,-0.93,-0.047
-0.34,-0.855,-0.082
-0.316,-0.809,-0.102
-0.305,-0.82,-0.141
-0.277,-0.836,-0.176
-0.258,-0.813,-0.191
-0.227,-0.758,-0.195
-0.188,-0.715,-0.203
-0.156,-0.668,-0.18
-0.113,-0.668,-0.16
-0.102,-0.684,-0.145
-0.121,-0.719,-0.129
-0.191,-0.75,-0.117
-0.242,-0.793,-0.105
-0.32,-0.813,-0.082
-0.391,-0.848,-0.074
-0.477,-0.887,-0.066
-0.559,-0.922,-0.059
-0.602,-0.941,-0.055
-0.602,-0.93,-0.031
-0.582,-0.922,-0.004
-0.539,-0.906,0.008
-0.488,-0.941,0.02
-0.465,-1.039,0.027
-0.477,-1.145,0.027
-0.508,-1.195,0.02
-0.547,-1.199,0.035
-0.566,-1.16,0.023
-0.613,-1.105,0
-0.578,-0.992,-0.016
-0.48,-0.871,0
-0.438,-0.813,0.012
-0.465,-0.836,0.004
-0.484,-0.852,-0.012
-0.465,-0.852,0
-0.434,-0.84,0.035
-0.395,-0.805,0.063
-0.348,-0.773,0.078
-0.313,-0.734,0.086
-0.285,-0.727,0.086
-0.293,-0.715,0.094
-0.297,-0.719,0.105
-0.305,-0.727,0.109
-0.309,-0.73,0.113
-0.301,-0.758,0.133
-0.273,-0.797,0.148
-0.254,-0.871,0.156
-0.242,-0.926,0.168
-0.23,-0.977,0.176
-0.234,-1.031,0.18
-0.242,-1.082,0.168
-0.25,-1.102,0.137
-0.258,-1.117,0.105
-0.246,-1.125,0.066
-0.242,-1.121,0.043
-0.219,-1.152,0.023
-0.199,-1.184,0.004
-0.195,-1.184,-0.012
-0.215,-1.102,-0.043
-0.273,-0.969,-0.078
-0.301,-0.836,-0.125
-0.297,-0.766,-0.16
-0.27,-0.781,-0.184
-0.25,-0.813,-0.191
-0.238,-0.82,-0.176
-0.211,-0.871,-0.305
-0.352,-0.863,-0.375
-0.344,-0.789,-0.352
-0.234,-0.711,-0.254
-0.207,-0.609,-0.148
-0.25,-0.586,-0.094
-0.273,-0.59,-0.086
-0.301,-0.605,-0.098
-0.375,-0.613,-0.105
-0.414,-0.648,-0.113
-0.449,-0.676,-0.102
-0.469,-0.688,-0.086
-0.469,-0.691,-0.074
-0.461,-0.703,-0.066
-0.434,-0.734,-0.07
-0.41,-0.82,-0.082
-0.379,-0.98,-0.063
-0.352,-1.227,-0.031
-0.41,-1.43,-0.012
-0.535,-1.504,0.016
-0.633,-1.426,0.055
-0.672,-1.266,0.078
-0.676,-1.063,0.066
-0.602,-0.883,0.051
-0.465,-0.77,0.043
-0.359,-0.758,0.063
-0.344,-0.813,0.086
-0.367,-0.875,0.098
-0.367,-0.895,0.109
-0.379,-0.863,0.152
-0.43,-0.832,0.199
-0.418,-0.793,0.234
-0.438,-0.75,0.289
-0.438,-0.73,0.363
-0.445,-0.715,0.41
-0.484,-0.734,0.449
-0.512,-0.734,0.492
-0.531,-0.73,0.52
-0.527,-0.715,0.539
-0.543,-0.695,0.555
-0.559,-0.695,0.563
-0.605,-0.699,0.563
-0.676,-0.727,0.543
-0.723,-0.773,0.531
-0.73,-0.785,0.508
-0.758,-0.793,0.496
-0.742,-0.805,0.445
-0.691,-0.797,0.391
-0.645,-0.797,0.336
-0.637,-0.773,0.301
-0.633,-0.754,0.25
-0.594,-0.746,0.199
-0.535,-0.75,0.188
-0.48,-0.781,0.195
-0.484,-0.816,0.195
-0.539,-0.805,0.18
-0.625,-0.762,0.16
-0.691,-0.754,0.109
-0.734,-0.777,0.031
-0.785,-0.84,-0.047
-0.813,-0.902,-0.105
-0.773,-0.938,-0.145
-0.691,-0.918,-0.156
-0.602,-0.887,-0.164
-0.52,-0.859,-0.172
-0.465,-0.82,-0.172
-0.438,-0.781,-0.156
-0.422,-0.734,-0.133
-0.422,-0.66,-0.117
-0.461,-0.586,-0.094
-0.574,-0.512,-0.098
-0.75,-0.453,-0.113
-0.883,-0.395,-0.09
-0.926,-0.348,-0.035
-0.969,-0.301,0.023
-1.078,-0.281,0.051
-1.188,-0.258,0.043
-1.18,-0.25,0.07
-1.102,-0.262,0.121
-1.082,-0.27,0.156
-1.094,-0.297,0.156
-1.055,-0.348,0.102
-1.004,-0.379,0.043
-0.988,-0.383,0.02
-0.953,-0.418,0.02
-0.891,-0.48,0.016
-0.789,-0.527,-0.031
-0.703,-0.512,-0.098
-0.602,-0.516,-0.188
-0.41,-0.543,-0.219
-0.473,-0.613,-0.324
-0.59,-0.543,-0.41
-0.531,-0.668,-0.438
-0.441,-0.73,-0.477
-0.16,-1.059,-0.383
0.656,-1.828,-0.813
-0.785,-0.008,-0.359
-0.078,-0.324,-0.434
-0.262,-0.594,-0.566
-0.418,-0.508,-0.641
-0.004,-0.992,-0.734
0.145,-1.211,-0.789
-0.012,-0.934,-0.824
-0.168,-0.594,-0.867
-0.184,-0.57,-0.887
-0.211,-0.727,-0.867
-0.234,-0.648,-0.813
-0.207,-0.547,-0.793
-0.223,-0.566,-0.75
-0.418,-0.66,-0.617
-0.777,-0.691,-0.414
-1.043,-0.563,-0.223
-1.277,-0.523,0.047
-1.434,-0.582,0.164
-1.441,-0.527,0.246
-1.449,-0.285,0.188
-1.273,-0.199,0.328
-0.961,-0.16,0.465
-0.645,-0.125,0.629
-0.457,-0.039,0.691
-0.383,0.102,0.734
-0.398,0.25,0.926
-0.348,0.305,1.129
-0.25,0.254,1.176
-0.074,0.266,1.273
0.023,0.172,1.297
0.129,-0.039,1.184
0.309,-0.176,1.121
0.383,-0.23,1.133
0.344,-0.148,1.164
0.176,-0.039,1.211
-0.031,0.039,1.199
-0.301,0.035,1.043
-0.496,0.121,0.883
-0.422,0.23,0.887
-0.465,0.246,0.875
-0.516,0.387,0.824
-0.523,0.512,0.844
-0.535,0.617,0.766
-0.453,0.695,0.781
-0.391,0.688,0.793
-0.402,0.668,0.746
-0.457,0.637,0.672
-0.469,0.586,0.637
-0.387,0.531,0.617
-0.348,0.488,0.563
-0.387,0.484,0.453
-0.512,0.469,0.285
-0.699,0.391,0.387
-0.629,0.352,0.516
-0.414,0.371,0.59
-0.758,0.238,0.375
-0.848,0.141,0.293
-0.656,0.328,0.563
-0.645,0.422,0.648
-0.723,0.355,0.641
-0.828,0.211,0.563
-0.902,0.035,0.598
-0.824,-0.09,0.742
-0.703,-0.203,0.742
-0.926,0.02,0.664
-1.141,-0.039,0.59
-1.34,-0.281,0.617
-1.684,-0.535,0.648
-1.727,-0.59,0.77
-1.461,-0.531,0.93
-1.016,-0.461,1.059
-0.539,-0.395,1.07
-0.152,-0.328,0.941
0.063,-0.227,0.672
0.109,-0.02,0.426
-0.121,0.277,0.18
-0.426,0.5,-0.098
-0.586,0.645,-0.203
-0.625,0.711,-0.086
-0.648,0.766,-0.086
-0.766,0.871,-0.18
-1.023,0.879,-0.297
-1.289,0.738,-0.352
-1.551,0.57,-0.34
-1.695,0.43,-0.297
-1.613,0.324,-0.238
-1.512,0.27,-0.102
-1.586,0.234,0.004
-1.691,0.191,0.117
-1.477,0.145,0.16
-1.527,-0.066,0.051
-1.383,-0.238,-0.188
-0.961,-0.391,-0.496
-0.91,-0.371,-0.391
-1.008,-0.102,0.008
-1.27,0.121,0.457
-1.199,0.371,1.016
-0.84,0.555,1.402
-0.676,0.457,1.066
-1.688,0.141,0.664
-2.266,-0.09,0.387
-1.98,-0.133,0.246
-1.309,-0.195,0.066
-0.422,-0.461,-0.527
0.426,-0.832,-1.18
0.289,-1.301,-1.363
-0.266,-0.98,-1.152
-0.73,-0.441,-0.668
-0.973,-0.293,-0.383
-0.914,-0.426,-0.285
-0.711,-0.316,-0.223
-0.414,-0.063,-0.148
-0.344,0.035,-0.074
-0.379,0.098,-0.188
-0.473,0.02,-0.07
-0.559,-0.059,-0.031
-0.664,-0.102,0.082
-0.652,0.012,0.285
-0.719,0.121,0.516
-0.914,0.152,0.66
-0.996,0.176,0.727
-0.965,0.23,0.781
-0.844,0.215,0.813
-0.637,0.254,0.93
-0.582,0.375,1.133
-0.75,0.504,1.395
-0.879,0.57,1.641
-0.848,0.594,1.801
-0.805,0.598,1.789
-0.938,0.633,1.531
-1.059,0.582,1.227
-0.836,0.297,1.023
-0.492,-0.066,1.02
-0.246,-0.09,1.145
-0.176,0.008,1.234
-0.301,-0.031,1.18
-0.441,-0.051,1.035
-0.461,-0.051,0.906
-0.422,-0.074,0.836
-0.43,-0.109,0.809
-0.41,-0.164,0.609
-0.551,-0.25,0.688
-0.496,-0.285,0.781
-0.438,-0.34,0.773
-0.473,-0.328,0.785
-0.352,-0.309,0.828
-0.344,-0.258,0.824
-0.402,-0.195,0.797
-0.363,-0.172,0.828
-0.289,-0.145,0.867
-0.289,-0.137,0.906
-0.371,-0.129,0.887
-0.41,-0.098,0.859
-0.426,-0.125,0.828
-0.465,-0.055,0.844
-0.457,-0.082,0.855
-0.441,-0.18,0.859
-0.418,-0.055,0.891
-0.457,-0.055,0.859
-0.469,-0.035,0.836
-0.516,-0.004,0.848
-0.551,-0.008,0.867
-0.602,-0.02,0.852
-0.629,-0.012,0.84
-0.633,-0.09,0.777
-0.602,-0.004,0.859
-0.629,-0.027,0.863
-0.652,0.004,0.867
-0.66,-0.031,0.832
-0.688,-0.031,0.785
-0.676,0.004,0.758
-0.703,0.02,0.746
-0.723,0.02,0.785
-0.688,0.02,0.828
-0.68,0.023,0.84
-0.695,0.063,0.773
-0.832,0.102,0.66
-0.773,0.176,0.672
-0.695,0.16,0.703
-0.734,0.152,0.73
-0.699,0.16,0.672
-0.691,0.16,0.664
-0.645,0.172,0.664
-0.598,0.113,0.664
-0.57,0.148,0.676
-0.516,0.359,0.781
-0.703,0.105,0.836
-0.859,0.234,0.695
-0.824,0.277,0.734
-0.555,0.238,0.734
-0.594,0.371,0.723
-0.582,0.375,0.703
-0.535,0.406,0.695
-0.656,0.434,0.691
-0.77,0.363,0.645
-0.711,0.332,0.602
-0.684,0.332,0.598
-0.656,0.328,0.629
-0.547,0.316,0.68
-0.539,0.27,0.73
-0.598,0.258,0.699
-0.688,0.227,0.625
-0.75,0.137,0.551
-0.727,0.125,0.586
-0.75,0.156,0.641
-0.777,0.109,0.656
-0.715,0.125,0.656
-0.758,0.234,0.555
-0.535,0.035,0.578
-0.656,0.078,0.492
-1.285,0.293,-0.215
-1.059,0.176,0.633
0.125,-0.047,0.426
0.695,-0.188,0.672
0.184,-0.121,0.102
-1.176,0.035,0.207
-1.969,0.105,0.309
-2.098,0.09,0.465
-1.914,0.074,0.504
-1.633,0.059,0.418
-1.414,0.027,0.344
-1.207,-0.063,0.367
-1.012,-0.059,0.457
-0.922,0.02,0.457
-0.926,0.063,0.41
-0.762,0.094,0.441
-0.613,0.156,0.52
-0.543,0.191,0.625
-0.516,0.23,0.734
-0.48,0.289,0.793
-0.457,0.328,0.781
-0.438,0.359,0.797
-0.391,0.375,0.82
-0.383,0.379,0.836
-0.438,0.336,0.816
-0.52,0.305,0.777
-0.563,0.273,0.754
-0.586,0.254,0.746
-0.598,0.227,0.719
-0.68,0.301,0.551
-0.52,0.254,0.609
-0.785,0.082,0.496
-0.434,0.055,0.52
-0.391,0.301,0.625
-0.383,0.242,0.699
-0.121,0.227,0.738
-0.273,0.285,0.832
-0.395,0.129,0.949
-0.48,0.109,0.961
-0.52,0.043,0.887
-0.469,0.07,0.926
-0.258,-0.063,1.074
0.082,0.293,1.117
-0.625,0.363,0.969
-0.578,0.176,0.953
-0.516,0.141,0.988
-0.426,0.152,1.035
-0.402,0.172,0.996
-0.285,0.203,0.902
-0.207,0.18,0.93
-0.324,0.102,0.969
-0.305,0.086,0.91
-0.117,0.102,0.859
0.043,0.109,0.957
0.039,0.121,1.098
-0.043,0.121,1.137
-0.027,0.141,1.082
-0.004,0.16,1.09
-0.129,0.145,1.082
-0.18,0.125,0.973
-0.129,0.102,0.934
-0.012,0.129,0.938
0.07,0.137,0.926
0.039,0.117,0.863
0.055,0.094,0.813
0.082,0.102,0.844
0.086,0.125,0.898
0.176,0.156,0.918
0.234,0.18,0.949
0.195,0.156,1.004
0.168,0.141,1.012
0.09,0.121,0.98
0.086,0.141,0.988
0.117,0.152,0.988
0.141,0.172,0.988
0.105,0.172,0.941
0.18,0.195,0.922
0.191,0.145,0.898
0.246,0.148,0.91
0.254,0.152,0.934
0.199,0.145,0.949
0.129,0.117,1.008
0.18,0.133,1.086
0.219,0.16,1.07
-0.164,0.145,0.957
0.215,0.164,0.832
0.254,0.156,0.879
0.016,0.152,0.949
0,0.117,1.055
0.051,0.117,1.098
0.156,0.121,1.078
0.152,0.125,1.047
0.117,0.105,1.047
0.109,0.098,1.047
0.148,0.098,1.008
0.117,0.113,0.988
0.008,0.117,0.98
0.012,0.105,1.012
0.051,0.102,1.039
-0.012,0.098,1.043
0.051,0.082,1.027
0.027,0.09,0.984
0.051,0.086,0.973
0.055,0.094,1.008
0.039,0.09,1.023
0.043,0.086,0.961
0.066,0.09,0.934
0.066,0.09,0.977
0.055,0.074,0.996
0.035,0.078,0.988
0.035,0.074,0.988
0.039,0.07,0.988
0.012,0.063,0.98
-0.02,0.063,0.977
0.031,0.043,0.969
0.063,0.07,0.988
0.043,0.063,0.98
0.039,0.063,1
0.059,0.07,0.996
0.051,0.082,1.008
0.051,0.078,1.008
0.035,0.078,0.988
0.031,0.078,0.98
0.031,0.063,0.984
0.043,0.07,0.98
0.047,0.078,0.98
0.063,0.09,0.973
0.082,0.094,0.996
0.098,0.09,0.992
0.094,0.074,0.977
0.094,0.074,0.953
0.074,0.074,0.969
0.113,0.082,0.98
0.141,0.082,1
0.168,0.105,0.992
0.125,0.105,1
0.094,0.09,1.016
0.145,0.094,0.992
0.16,0.105,0.98
0.133,0.082,0.969
0.117,0.09,0.965
0.137,0.113,0.949
0.121,0.113,0.969
0.129,0.109,1.012
0.168,0.125,1.008
0.172,0.137,0.98
0.117,0.102,0.949
0.109,0.102,0.969
0.137,0.098,0.977
0.109,0.098,0.957
0.074,0.109,0.949
0.098,0.117,0.977
0.109,0.113,0.996
0.102,0.102,0.977
0.09,0.109,0.98
0.094,0.121,1.008
0.086,0.121,1.004
0.078,0.117,0.984
0.109,0.098,0.953
0.023,0.094,0.969
0.086,0.117,0.949
0.039,0.09,0.984
0.066,0.09,0.969
0.023,0.082,0.953
0,0.082,0.988
-0.016,0.09,1.008
-0.02,0.113,1.027
0.023,0.113,1.02
-0.051,0.105,1.031
-0.102,0.09,1
-0.098,0.086,0.93
-0.152,0.078,0.867
-0.195,0.023,0.891
-0.164,0.035,0.949
-0.059,0.063,0.953
0,0.07,0.938
-0.039,0.055,0.945
-0.082,0.102,0.961
0.059,0.125,1.016
0.117,0.074,1.035
0.086,0.043,1.012
0.129,0,1.031
0.18,0.016,1.074
0.16,0.035,1.063
0.121,0.016,1.078
0.102,-0.012,1.086
0.086,-0.004,1.066
0.055,0,1
0.02,-0.023,0.941
-0.039,-0.016,0.953
-0.012,-0.039,0.934
-0.031,-0.012,0.91
-0.051,0.012,0.914
-0.012,0.004,0.945
0.027,0.004,0.953
-0.012,0.008,0.984
-0.059,0.02,0.984
-0.066,0.012,0.977
-0.063,-0.004,0.996
-0.047,-0.004,0.984
-0.059,-0.008,0.957
-0.051,0,0.945
-0.059,0.008,0.953
-0.055,0.023,0.953
-0.145,0.039,0.949
-0.211,0.055,0.945
-0.258,0.043,0.949
-0.297,0.039,0.953
-0.355,0.035,0.953
-0.379,0.035,0.953
-0.375,0,0.914
-0.363,0.008,0.898
-0.328,0.008,0.91
-0.348,-0.016,0.906
-0.402,-0.02,0.918
-0.379,0,0.898
-0.402,-0.004,0.898
-0.434,-0.004,0.887
-0.453,0.008,0.863
-0.426,-0.008,0.859
-0.41,-0.016,0.887
-0.445,-0.031,0.891
-0.469,-0.035,0.867
-0.473,-0.063,0.863
-0.465,-0.098,0.875
-0.43,-0.094,0.906
-0.371,-0.051,0.91
-0.391,-0.031,0.898
-0.391,-0.027,0.945
-0.492,-0.012,0.887
-0.457,-0.008,0.855
-0.453,-0.027,0.875
-0.453,-0.031,0.891
-0.422,-0.027,0.902
-0.418,-0.008,0.902
-0.465,0.012,0.867
-0.492,0.004,0.828
-0.461,-0.008,0.828
-0.5,-0.008,0.902
-0.523,-0.039,0.938
-0.484,-0.039,0.875
-0.473,0.137,0.84
-0.824,-0.02,0.734
-0.77,0.129,0.715
-0.227,0.035,0.738
-0.449,0.188,0.742
-0.434,-0.039,0.707
-0.883,0.023,0.602
-0.879,0.051,0.637
-0.852,-0.027,0.738
-0.961,-0.059,0.672
-1.102,0,0.648
-0.73,0.043,0.672
-0.293,-0.172,0.594
-0.707,-0.25,0.465
-0.836,-0.219,0.574
-0.887,-0.371,0.559
-0.84,-0.297,0.523
-0.629,-0.387,0.344
-0.535,-0.316,0.348
-0.723,-0.398,0.398
-0.895,-0.297,0.422
-0.84,-0.238,0.551
-0.895,-0.504,0.508
-0.871,-0.5,0.449
-0.613,-0.41,0.457
-0.367,-0.18,0.602
-0.66,-0.188,0.48
-0.695,-0.148,0.516
-0.613,-0.16,0.555
-0.652,-0.191,0.59
-0.711,-0.246,0.574
-0.75,-0.25,0.574
-0.645,-0.27,0.559
-0.66,-0.305,0.582
-0.676,-0.273,0.629
-0.598,-0.297,0.672
-0.586,-0.406,0.695
-0.504,-0.418,0.617
-0.574,-0.367,0.559
-0.672,-0.313,0.527
-0.723,-0.332,0.492
-0.684,-0.383,0.52
-0.598,-0.434,0.602
-0.703,-0.434,0.598
-0.66,-0.395,0.617
-0.5,-0.344,0.637
-0.508,-0.313,0.684
-0.469,-0.258,0.727
-0.578,-0.238,0.742
-0.609,-0.234,0.809
-0.289,-0.227,0.754
-0.156,-0.094,0.832
-0.594,0.02,1.066
-0.672,0.012,1.063
-0.695,0.16,1.074
-0.816,-0.102,0.785
-0.934,-0.207,0.539
-0.887,-0.313,0.406
-0.828,-0.246,0.363
-0.758,-0.309,0.379
-0.898,-0.441,0.359
-0.938,-0.406,0.375
-0.563,0.02,0.898
-0.117,0.063,0.91
-0.695,0.109,0.664
-0.867,0.117,0.773
-0.621,0.129,0.914
-0.57,0.141,0.961
-0.68,0,0.906
-0.758,-0.09,0.879
-0.77,-0.145,0.895
-0.754,-0.156,0.902
-0.695,-0.109,0.82
-0.609,-0.027,0.859
-0.504,-0.016,0.953
-0.449,0.008,0.91
-0.41,0.035,0.926
-0.273,0.113,0.879
-0.031,0.23,0.887
0.012,0.41,1.148
-0.563,-0.164,0.836
-0.918,0.098,0.82
-0.117,0.34,0.801
0.223,-0.055,0.527
0.137,0.008,0.453
-0.016,0.125,0.719
-0.035,0.117,0.906
-0.016,0.234,0.992
0.09,0.41,1.012
0.055,0.512,1.047
-0.254,0.395,1.16
-0.41,0.184,1.191
-0.188,0.07,1.148
0.035,0.023,1.156
0.184,0.031,1.098
0.18,0.078,1.031
0.141,0.117,1.02
0.027,0.074,1.023
0.309,0.094,0.852
0.383,0.129,1.102
0.477,0.094,1.035
0.313,0.152,1.004
0.039,0.152,1
0.086,-0.008,0.922
0.387,0.086,1.02
0.152,0.098,1.051
0.066,0.031,0.977
0.25,0.059,0.961
0.305,0.098,0.941
0.363,0.145,0.957
0.297,0.094,0.98
0.188,0.066,0.969
0.371,0.082,1.027
0.719,0.012,1.117
0.367,0.094,0.996
0.391,0.066,0.891
0.582,0.07,0.957
0.363,0.18,0.93
0.176,0.117,0.781
0.332,0.082,0.766
0.414,0.047,0.746
0.426,0.059,0.73
0.473,0.07,0.777
0.535,0.098,0.773
0.656,0.102,0.809
0.645,0.074,0.969
0.598,0.078,0.965
0.547,0.094,0.871
0.465,0.086,0.836
0.578,0.074,0.84
0.551,0.059,0.824
0.488,0.035,0.852
0.539,0.043,0.777
0.594,0.078,0.707
0.578,0.074,0.68
0.59,0.082,0.727
0.574,0.086,0.797
0.563,0.105,0.836
0.457,0.105,0.852
0.313,0.102,0.926
0.551,0.168,0.77
0.57,0.145,0.973
0.508,0.102,1.004
0.328,0.051,0.988
0.246,0.082,0.828
0.602,0.047,0.871
0.348,0.023,0.875
0.355,0.047,0.926
0.332,0.043,0.988
0.309,0.113,0.895
0.305,0.086,0.945
0.148,0.078,0.902
0.215,0.027,0.875
0.258,0.063,0.918
0.203,0.051,0.922
0.285,0.059,0.949
0.313,0.051,0.977
0.305,0.039,0.992
0.301,0.051,1.004
0.32,0.074,0.977
0.359,0.086,0.953
0.363,0.07,0.941
0.324,0.043,0.961
0.32,0.047,0.953
0.313,0.07,0.934
0.324,0.078,0.945
0.355,0.086,0.941
0.363,0.086,0.945
0.328,0.078,0.977
0.332,0.086,0.996
0.379,0.121,0.953
0.379,0.094,0.926
0.324,0.051,0.922
0.313,0.039,0.938
0.332,0.078,0.965
0.324,0.074,0.965
0.309,0.055,0.906
0.297,0.035,0.871
0.289,0.031,0.875
0.332,0.07,0.871
0.355,0.094,0.898
0.309,0.082,0.93
0.281,0.074,0.973
0.305,0.09,0.996
0.313,0.102,0.992
0.316,0.105,0.949
0.336,0.102,0.906
0.352,0.082,0.918
0.344,0.059,0.949
0.359,0.078,0.949
0.348,0.07,0.934
0.391,0.055,0.969
0.391,0.051,0.945
0.355,0.07,0.863
0.293,0.063,0.82
0.328,0.047,0.855
0.398,0.051,0.91
0.426,0.078,0.941
0.414,0.09,0.938
0.367,0.086,0.922
0.375,0.07,0.922
0.371,0.063,0.93
0.398,0.07,0.91
0.332,0.063,0.934
0.316,0.055,0.973
0.336,0.063,0.941
0.324,0.055,0.941
0.316,0.051,0.926
0.313,0.059,0.918
0.34,0.051,0.906
0.285,0.043,0.891
0.27,0.035,0.922
0.297,0.043,0.945
0.277,0.055,0.945
0.258,0.043,0.969
0.254,0.035,0.977
0.301,0.066,0.973
0.258,0.07,0.957
0.258,0.059,0.953
0.277,0.051,0.961
0.266,0.039,0.957
0.293,0.051,0.934
0.285,0.055,0.949
0.258,0.051,0.969
0.25,0.047,0.969
0.254,0.055,0.98
0.25,0.059,0.961
0.25,0.047,0.949
0.25,0.027,0.957
0.266,0.027,0.949
0.285,0.035,0.949
0.273,0.031,0.957
0.27,0.039,0.957
0.262,0.051,0.965
0.262,0.051,0.961
0.266,0.035,0.973
0.277,0.035,0.969
0.289,0.035,0.953
0.277,0.035,0.961
0.27,0.051,0.961
0.25,0.047,0.961
0.203,0.059,0.926
0.238,0.012,0.922
0.211,0.012,0.934
0.211,0.031,0.965
0.242,0.051,1.004
0.223,0.063,1.023
0.195,0.09,1.016
0.211,0.078,1.012
0.195,0.063,0.973
0.234,0.082,0.949
0.238,0.066,0.945
0.172,0.066,0.922
0.086,0.043,0.91
0.148,0.047,1.012
0.281,0.113,1.055
0.25,0.082,1.016
0.227,0.164,0.949
0.113,0.082,0.961
0.035,0.02,1.008
0.094,0.012,1.031
0.113,-0.008,1.035
0.105,-0.039,1.031
-0.039,-0.227,1.102
-0.23,-0.012,1.035
-0.121,-0.035,0.992
0.109,0.145,0.988
0.484,0.07,0.727
-0.262,-0.133,0.828
-0.223,-0.074,0.953
-0.191,-0.063,0.938
-0.109,-0.07,0.988
-0.145,0.004,1.004
-0.117,0.039,0.965
-0.09,0.051,0.996
-0.055,0.07,1.016
-0.145,0.055,1.035
-0.285,-0.02,0.977
-0.258,-0.063,1.004
-0.219,0,0.984
-0.082,0.004,0.996
-0.125,-0.043,1.004
0.031,-0.094,0.953
0.16,0.008,0.961
-0.016,-0.031,0.957
-0.012,-0.184,0.688
-0.969,-0.449,1.102
-0.805,0.063,1.141
-0.609,0.133,0.496
-0.434,0.137,0.828
-0.297,-0.008,0.953
-0.199,-0.008,1.168
-0.105,-0.09,1.121
-0.086,-0.148,0.883
0.027,-0.367,0.793
-0.023,-0.18,1.164
-0.145,0.039,1.18
-0.211,0.313,0.906
-0.074,0.246,0.738
-0.102,0.324,0.836
-0.383,0.609,0.926
-0.422,0.609,1.27
-0.441,0.57,1.195
-0.344,0.465,0.922
-0.336,0.441,0.773
-0.535,0.496,0.813
-0.684,0.465,0.965
-0.703,0.488,0.75
-0.598,0.316,0.465
-0.59,0.219,0.688
-0.73,0.379,0.586
-0.813,0.402,0.465
-0.766,0.27,0.512
-0.758,0.156,0.453
-0.746,0.246,0.285
-0.805,0.266,0.285
-0.871,0.375,0.352
-0.844,0.395,0.434
-0.77,0.285,0.523
-0.816,0.41,0.332
-0.852,0.441,0.348
-0.898,0.41,0.297
-0.902,0.367,0.535
-0.949,0.398,0.684
-0.938,0.336,0.988
-1.102,0.273,0.438
-1.09,0.215,-0.297
-0.855,0.305,-0.004
-0.836,0.207,-0.113
-1.078,0.211,-0.477
-1.012,0.203,-0.461
-0.961,0.105,-0.492
-0.824,0.09,-0.48
-0.855,0.039,-0.582
-0.844,-0.055,-0.672
-0.789,-0.137,-0.727
-0.727,-0.176,-0.723
-0.582,-0.238,-0.676
-0.469,-0.281,-0.664
-0.426,-0.367,-0.676
-0.426,-0.418,-0.734
-0.465,-0.402,-0.711
-0.516,-0.352,-0.641
-0.52,-0.328,-0.605
-0.461,-0.406,-0.641
-0.438,-0.461,-0.68
-0.484,-0.461,-0.648
-0.488,-0.496,-0.633
-0.488,-0.512,-0.617
-0.492,-0.484,-0.504
-0.527,-0.508,-0.543
-0.52,-0.543,-0.699
-0.543,-0.602,-0.766
-0.574,-0.57,-0.715
-0.52,-0.48,-0.664
-0.5,-0.418,-0.672
-0.48,-0.422,-0.703
-0.305,-0.375,-0.637
-0.461,-0.387,-0.688
-0.461,-0.441,-0.633
-0.402,-0.48,-0.629
-0.461,-0.344,-0.777
-0.527,-0.176,-0.871
-0.516,-0.094,-0.836
-0.578,-0.027,-0.91
-0.52,-0.004,-0.906
-0.453,0.09,-0.879
-0.355,0.207,-0.945
-0.379,0.184,-1.031
-0.648,0.145,-0.852
-0.816,0.297,-0.609
-0.59,0.445,-0.492
-0.57,0.535,-0.387
-0.57,0.633,-0.406
-0.582,0.691,-0.434
-0.641,0.664,-0.516
-0.613,0.648,-0.598
-0.535,0.699,-0.535
-0.531,0.805,-0.449
-0.488,0.902,-0.313
-0.457,0.938,-0.133
-0.332,1.066,-0.059
-0.27,1.074,-0.117
-0.324,0.988,0.059
-0.266,0.934,0.215
-0.203,1.047,0.207
-0.18,1.133,0.238
-0.09,1.051,0.371
-0.086,0.934,0.414
-0.082,0.91,0.438
-0.078,0.926,0.449
-0.051,0.891,0.465
-0.027,0.941,0.563
-0.008,0.738,0.77
-0.07,0.77,0.73
-0.09,0.781,0.633
-0.133,0.684,0.555
-0.063,0.902,0.637
-0.168,0.539,0.469
-0.117,0.52,0.508
-0.141,0.539,0.441
-0.172,0.578,0.543
-0.168,0.645,0.535
-0.199,0.762,0.707
-0.105,0.715,0.746
-0.109,0.781,0.875
0.164,0.941,1.387
-0.195,0.852,0.164
-0.203,0.805,0.488
-0.145,1.063,0.43
-0.148,1.004,0.512
-0.145,0.941,0.473
-0.191,0.848,0.473
-0.137,0.879,0.539
-0.215,0.836,0.488
-0.148,0.977,0.434
-0.074,0.996,0.41
-0.168,0.91,0.184
-0.223,0.922,0.117
-0.25,0.879,0.121
-0.258,0.887,0.137
-0.227,0.941,0.172
-0.203,0.98,0.191
-0.199,0.965,0.195
-0.262,1.039,0.031
-0.352,1.113,0.18
-0.301,0.953,0.285
-0.316,0.957,0.031
-0.277,1.012,0.008
-0.324,1.031,-0.008
-0.367,1.008,0.047
-0.406,0.906,0.285
-0.414,1.023,-0.035
-0.348,1.074,0.086
-0.313,1.039,0.168
-0.129,1.027,0.281
-0.191,1.027,0.262
-0.461,0.871,-0.023
-0.496,0.828,-0.004
-0.324,0.969,0.121
-0.281,0.98,0.086
-0.305,0.91,0.039
-0.297,0.961,0.039
-0.289,0.957,0.059
-0.297,0.953,0.066
-0.313,0.938,0.078
-0.359,0.965,0.035
-0.34,0.961,0.043
-0.285,1.02,0.172
-0.215,1.004,0.313
-0.191,0.926,0.316
-0.141,0.883,0.438
-0.008,0.969,0.539
-0.07,0.852,0.59
-0.066,0.863,0.551
-0.082,0.801,0.547
-0.105,0.785,0.531
-0.063,0.758,0.559
-0.055,0.754,0.586
-0.031,0.805,0.617
-0.004,0.809,0.504
-0.117,0.742,0.5
-0.074,0.727,0.598
0,0.879,0.688
-0.012,0.828,0.633
-0.012,0.785,0.613
-0.016,0.828,0.656
-0.035,0.773,0.625
-0.008,0.777,0.676
-0.02,0.777,0.668
-0.031,0.777,0.633
-0.105,0.699,0.656
-0.012,0.754,0.723
0.004,0.719,0.742
0.016,0.695,0.742
0.02,0.684,0.746
0.035,0.668,0.754
-0.012,0.531,0.816
0.004,0.484,0.828
-0.012,0.516,0.824
0.035,0.531,0.809
0,0.48,0.844
0.008,0.453,0.836
-0.031,0.469,0.879
0.004,0.492,0.875
0.016,0.496,0.883
-0.023,0.535,0.836
-0.008,0.535,0.816
-0.016,0.535,0.809
-0.004,0.551,0.867
-0.055,0.555,0.871
-0.059,0.527,0.828
-0.059,0.504,0.855
-0.031,0.539,0.859
-0.094,0.547,0.84
-0.086,0.535,0.828
-0.09,0.547,0.844
-0.105,0.535,0.844
-0.16,0.543,0.816
-0.145,0.531,0.816
-0.148,0.523,0.84
-0.125,0.516,0.855
-0.141,0.512,0.836
-0.176,0.512,0.848
-0.117,0.516,0.844
-0.164,0.473,0.84
-0.184,0.445,0.84
-0.148,0.445,0.84
-0.188,0.441,0.824
-0.164,0.434,0.871
-0.152,0.43,0.879
-0.129,0.43,0.883
-0.129,0.418,0.902
-0.152,0.402,0.863
-0.117,0.418,0.879
-0.199,0.387,0.891
-0.129,0.41,0.934
-0.109,0.406,0.953
-0.125,0.383,0.953
-0.16,0.379,0.902
-0.176,0.391,0.891
-0.168,0.383,0.902
-0.16,0.379,0.895
-0.145,0.375,0.918
-0.133,0.352,0.941
-0.156,0.367,0.898
-0.121,0.355,0.938
-0.141,0.379,0.93
-0.172,0.359,0.906
-0.113,0.363,0.926
-0.133,0.379,0.895
-0.133,0.391,0.906
-0.141,0.387,0.906
-0.145,0.359,0.902
-0.145,0.336,0.91
-0.137,0.324,0.926
-0.133,0.332,0.926
-0.113,0.324,0.93
-0.098,0.328,0.941
-0.117,0.34,0.93
-0.121,0.34,0.91
-0.109,0.375,0.906
-0.09,0.48,0.918
-0.051,0.477,0.977
-0.098,0.496,0.898
-0.07,0.523,0.879
-0.066,0.57,0.891
-0.035,0.59,0.84
-0.082,0.637,0.652
-0.164,0.715,0.441
-0.09,0.984,0.391
0.156,1.098,0.574
0.082,0.945,0.609
-0.031,0.848,0.457
-0.078,0.77,0.395
-0.117,0.762,0.348
-0.117,0.938,0.402
0.117,0.965,0.496
0.07,0.84,0.492
-0.035,0.648,0.473
-0.012,0.613,0.453
0.023,0.824,0.285
0.141,1.121,0.402
0.355,1.07,0.598
0.238,0.824,0.477
0.207,0.707,0.438
0.227,0.852,0.461
0.238,0.949,0.449
0.301,0.863,0.516
0.391,0.754,0.531
0.414,0.742,0.473
0.242,0.797,0.438
0.262,0.84,0.387
0.227,0.805,0.426
0.246,0.848,0.43
0.352,0.809,0.469
0.391,0.762,0.527
0.461,0.82,0.496
0.43,0.883,0.473
0.398,0.902,0.418
0.406,0.805,0.43
0.371,0.766,0.43
0.371,0.875,0.457
0.402,0.926,0.48
0.371,0.895,0.441
0.344,0.828,0.367
0.305,0.785,0.285
0.297,0.871,0.293
0.309,0.992,0.359
0.348,0.918,0.344
0.359,0.855,0.301
0.352,0.898,0.277
0.34,0.969,0.328
0.34,0.98,0.328
0.363,0.926,0.246
0.379,0.883,0.215
0.359,0.883,0.246
0.344,0.926,0.262
0.352,0.953,0.258
0.355,0.945,0.211
0.367,0.949,0.211
0.375,0.914,0.195
0.375,0.895,0.168
0.375,0.953,0.148
0.375,0.969,0.133
0.359,0.918,0.105
0.367,0.895,0.121
0.355,0.895,0.148
0.363,0.887,0.172
0.367,0.91,0.148
0.391,0.934,0.125
0.391,0.945,0.137
0.395,0.945,0.148
0.406,0.945,0.188
0.379,0.949,0.168
0.344,0.93,0.125
0.34,0.922,0.121
0.316,0.945,0.078
0.262,0.941,0.051
0.246,1,0.074
0.227,1.004,0.094
0.262,1.016,0.07
0.293,0.922,0.027
0.297,0.957,0.02
0.293,1.152,0.094
0.309,1.172,0.125
0.316,0.988,0.07
0.277,0.871,0.004
0.227,1.016,0.031
0.199,1.078,0.039
0.195,1.059,-0.059
0.227,0.863,-0.285
0.184,0.773,-0.383
0.152,0.902,-0.344
0.199,1.055,-0.336
0.227,1.047,-0.363
0.199,1.012,-0.422
0.207,0.852,-0.375
0.168,0.883,-0.207
0.164,1.07,-0.18
0.234,1.031,-0.055
0.219,0.918,-0.012
0.219,0.906,-0.012
0.223,0.887,-0.016
0.227,0.895,0.004
0.262,0.961,0.063
0.285,0.906,0.082
0.305,0.871,0.094
0.301,0.871,0.086
0.324,0.863,0.082
0.332,0.891,0.082
0.363,0.973,0.063
0.391,0.992,0.063
0.406,0.988,0.039
0.406,0.969,0.012
0.398,0.961,0.008
0.398,0.969,0
0.406,1.043,0.012
0.414,1.031,-0.004
0.398,0.93,-0.008
0.395,0.914,0.008
0.406,0.93,0.016
0.406,0.906,0.004
0.414,0.918,0.012
0.418,0.91,0.02
0.414,0.898,0.016
0.418,0.898,0.055
0.43,0.871,0.07
0.418,0.84,0.043
0.441,0.875,0.02
0.449,0.91,0.012
0.461,0.922,0.012
0.465,0.871,0.012
0.477,0.84,0.016
0.48,0.859,0.031
0.496,0.906,0.035
0.484,0.879,0.023
0.484,0.832,0.039
0.504,0.84,0.078
0.516,0.859,0.059
0.527,0.918,0.008
0.551,0.941,0.012
0.555,0.887,0.047
0.559,0.836,0.09
0.563,0.848,0.152
0.574,0.867,0.148
0.574,0.859,0.07
0.547,0.672,0.074
0.598,0.852,0.145
0.586,0.914,0.074
0.586,0.715,0.094
0.582,0.801,0.172
0.605,0.813,0.172
0.633,1.012,0.07
0.582,0.492,0.16
0.578,0.809,0.227
0.441,0.852,0.148
0.555,0.801,0.082
0.617,0.797,0.117
0.629,0.777,0.148
0.602,0.754,0.121
0.598,0.746,0.117
0.602,0.766,0.16
0.621,0.746,0.195
0.617,0.742,0.121
0.617,0.73,0.227
0.637,0.82,0.313
0.605,0.699,0.281
0.617,0.727,0.266
0.469,0.625,0.195
0.566,0.727,0.258
0.605,0.805,0.281
0.691,0.816,0.328
0.621,0.797,0.367
0.613,0.766,0.395
0.621,0.746,0.457
0.637,0.715,0.383
0.605,0.754,0.309
0.598,0.715,0.25
0.566,0.75,0.281
0.594,0.762,0.352
0.613,0.727,0.371
0.629,0.727,0.34
0.602,0.699,0.211
0.645,0.73,0.27
0.652,0.773,0.41
0.641,0.75,0.379
0.629,0.703,0.332
0.621,0.707,0.348
0.629,0.68,0.305
0.629,0.641,0.301
0.637,0.648,0.406
0.68,0.676,0.492
0.68,0.672,0.473
0.652,0.66,0.406
0.637,0.633,0.434
0.645,0.625,0.441
0.656,0.602,0.461
0.625,0.602,0.477
0.613,0.613,0.492
0.609,0.59,0.469
0.625,0.574,0.555
0.625,0.578,0.57
0.594,0.578,0.527
0.563,0.574,0.477
0.563,0.586,0.473
0.613,0.586,0.563
0.637,0.602,0.621
0.629,0.605,0.621
0.613,0.59,0.582
0.609,0.578,0.605
0.613,0.547,0.598
0.574,0.547,0.613
0.551,0.555,0.563
0.539,0.566,0.574
0.555,0.559,0.699
0.574,0.52,0.676
0.566,0.512,0.602
0.527,0.48,0.586
0.496,0.516,0.648
0.512,0.543,0.656
0.555,0.492,0.715
0.535,0.414,0.676
0.449,0.359,0.762
0.426,0.426,0.797
0.309,0.398,0.805
0.293,0.363,0.742
0.406,0.398,0.738
0.418,0.473,0.762
0.328,0.496,0.746
0.242,0.457,0.695
0.211,0.508,0.648
0.27,0.715,0.559
0.316,0.777,0.613
0.289,0.758,0.711
0.273,0.727,0.676
0.242,0.727,0.68
0.27,0.734,0.637
0.266,0.734,0.555
0.234,0.719,0.582
0.258,0.754,0.645
0.289,0.766,0.68
0.324,0.77,0.668
0.359,0.805,0.73
0.328,0.758,0.676
0.344,0.73,0.594
0.367,0.777,0.664
0.219,1.148,0.555
0.426,0.563,0.684
0.52,0.461,0.754
0.496,0.457,0.715
0.465,0.512,0.727
0.48,0.504,0.789
0.477,0.492,0.715
0.445,0.465,0.648
0.449,0.434,0.668
0.418,0.457,0.758
0.438,0.426,0.797
0.453,0.387,0.77
0.457,0.371,0.77
0.445,0.426,0.789
0.438,0.438,0.793
0.508,0.5,1.25
0.422,0.383,0.969
0.387,0.402,0.828
0.359,0.391,0.832
0.375,0.398,0.852
0.395,0.395,0.891
0.375,0.41,0.887
0.363,0.367,0.867
0.336,0.352,0.859
0.324,0.332,0.895
0.309,0.297,0.98
0.266,0.273,0.988
0.172,0.266,0.883
0.078,0.281,0.789
0.059,0.344,0.824
0.117,0.313,0.867
0.246,0.113,0.855
0.16,-0.148,0.73
0.234,-0.055,0.902
0.27,0.02,1.066
0.258,0.121,0.953
0.281,0.188,0.938
0.359,0.059,1
0.324,0.223,1
0.285,0.363,0.988
0.242,0.363,0.891
0.164,0.289,0.848
0.148,0.191,0.883
0.086,0.211,0.816
0.035,0.246,0.816
0.035,0.273,0.961
0.125,0.125,1.055
0.145,-0.012,1.008
0.055,0.027,0.957
0,0.039,0.934
0.016,0.09,1.023
0.074,0.141,1.102
0.074,0.176,1.047
0.09,0.215,0.996
0.113,0.199,1.023
0.195,0.191,1.02
0.137,0.035,1.004
0.121,-0.07,0.996
0.141,-0.031,0.98
0.117,0.004,0.945
0.117,0.004,0.945
0.117,0.004,0.945
0.117,0.004,0.945
0.117,0.004,0.945
0.117,0.004,0.945
0.117,0.004,0.945
0.117,0.004,0.945
0.117,0.004,0.945
0.117,0.004,0.945
0.117,0.004,0.945
0.117,0.004,0.945
0.117,0.004,0.945
0.117,0.004,0.945
0.117,0.004,0.945
0.117,0.004,0.945
0.117,0.004,0.945
0.117,0.004,0.945
0.117,0.004,0.945
0.117,0.004,0.945
0.117,0.004,0.945
0.117,0.004,0.945
0.117,0.004,0.945
0.117,0.004,0.945
0.117,0.004,0.945
0.117,0.004,0.945
0.117,0.004,0.945
0.117,0.004,0.945
0.117,0.004,0.945
0.117,0.004,0.945
0.117,0.004,0.945
0.117,0.004,0.945
0.117,0.004,0.945
0.117,0.004,0.945
0.117,0.004,0.945
0.117,0.004,0.945
0.117,0.004,0.945
0.117,0.004,0.945
0.117,0.004,0.945
0.117,0.004,0.945
0.117,0.004,0.945
0.117,0.004,0.945
0.117,0.004,0.945
0.117,0.004,0.945
0.117,0.004,0.945
0.117,0.004,0.945
0.117,0.004,0.945
0.117,0.004,0.945
0.117,0.004,0.945
0.117,0.004,0.945
0.117,0.004,0.945
0.117,0.004,0.945
0.117,0.004,0.945
0.117,0.004,0.945
0.117,0.004,0.945
0.117,0.004,0.945
0.117,0.004,0.945
0.117,0.004,0.945
0.117,0.004,0.945
0.117,0.004,0.945
0.117,0.004,0.945
0,0,0
0,0,0
0,0,0
0,0,0
0,0,0
0,0,0
0,0,0
0,0,0
0,0,0
0,0,0
0,0,0
0,0,0
0,0,0
0,0,0
0,0,0
0,0,0
0,0,0
0,0,0
0,0,0
0,0,0
0,0,0
0,0,0
0,0,0
0,0,0
0,0,0
0,0,0
0,0,0
0,0,0
0,0,0
0,0,0
0,0,0
0,0,0
0,0,0
0,0,0
0,0,0
0,0,0
0,0,0
0,0,0
0,0,0
0,0,0
0,0,0
0,0,0
0,0,0
0,0,0
0,0,0
0,0,0
0,0,0
0,0,0
0,0,0
0,0,0
0,0,0
0,0,0
0,0,0
0,0,0
0,0,0
0,0,0
0,0,0
0,0,0
0,0,0
0,0,0
0,0,0
0,0,0
0,0,0
0,0,0
0,0,0
0,0,0
0,0,0
0,0,0
0,0,0
0,0,0
0,0,0
0,0,0
0,0,0
0,0,0
0,0,0
0,0,0
0,0,0
0,0,0
0,0,0
0,0,0
0,0,0
0,0,0
0,0,0
0,0,0
0,0,0
0,0,0
0,0,0
0,0,0
0,0,0
0,0,0
0,0,0
0,0,0
0,0,0
0,0,0
0,0,0
0,0,0
0,0,0
0,0,0
0,0,0
0,0,0
0,0,0
0,0,0
0,0,0
0,0,0
0,0,0
0,0,0
0,0,0
0,0,0
0,0,0
0,0,0
0,0,0
0,0,0
0,0,0
0,0,0
0,0,0
0,0,0
0,0,0
0,0,0
0,0,0
0,0,0
0,0,0
0,0,0
0,0,0
0,0,0
0,0,0
0,0,0
0,0,0
0,0,0
0,0,0
0,0,0
0,0,0
0,0,0
0,0,0
0,0,0
0,0,0
0,0,0
0,0,0
0,0,0
0,0,0
0,0,0
0,0,0
0,0,0
0,0,0
0,0,0
0,0,0
0,0,0
0,0,0
0,0,0
0,0,0
0,0,0
0,0,0
0,0,0
0,0,0
0,0,0
0,0,0
0,0,0
0,0,0
0,0,0
0,0,0
0,0,0
0,0,0
0,0,0
0,0,0
0,0,0
0,0,0
0,0,0
0,0,0
0,0,0
0,0,0
0,0,0
0,0,0
0,0,0
0,0,0
0,0,0
0,0,0
0,0,0
0,0,0
0,0,0
0,0,0
0,0,0
0,0,0
0,0,0
0,0,0
0,0,0
0,0,0
0,0,0
0,0,0
0,0,0
0,0,0
0,0,0
0,0,0
0,0,0
0,0,0
0,0,0
0,0,0
0,0,0
0,0,0
0,0,0
0,0,0
0,0,0
0,0,0
0,0,0
0,0,0
0,0,0
0,0,0
0,0,0
0,0,0
0,0,0
0,0,0
0,0,0
0,0,0
0,0,0
0,0,0
0,0,0
0,0,0
0,0,0
0,0,0
0,0,0
0,0,0
0,0,0
0,0,0
0,0,0
0,0,0
0,0,0
0,0,0
0,0,0
0,0,0
0,0,0
0,0,0
0,0,0
0,0,0
0,0,0
0,0,0
0,0,0
0,0,0
0,0,0
0,0,0
0,0,0
0,0,0
0,0,0
0,0,0
0,0,0
0,0,0
0,0,0
0,0,0
0,0,0
0,0,0
0,0,0
0,0,0
0,0,0
0,0,0
0,0,0
0,0,0
0,0,0
0,0,0
0,0,0
0,0,0
0,0,0
0,0,0
0,0,0
0,0,0
0,0,0
0,0,0
0,0,0
0,0,0
0,0,0
0,0,0
0,0,0
0,0,0
0,0,0
0,0,0
0,0,0
0,0,0
0,0,0
0,0,0
0,0,0
0,0,0
0,0,0
0,0,0
0,0,0
0,0,0
0,0,0
0,0,0
0,0,0
0,0,0
0,0,0
0,0,0
0,0,0
0,0,0
0,0,0
0,0,0
0,0,0
0,0,0
0,0,0
0,0,0
0,0,0
0,0,0
0,0,0
0,0,0
0,0,0
0,0,0
0,0,0
0,0,0
0,0,0
0,0,0
0,0,0
0,0,0
0,0,0
0,0,0
0,0,0
0,0,0
0,0,0
0,0,0
0,0,0
0,0,0
0,0,0
0,0,0
0,0,0
0,0,0
0,0,0
0,0,0
0,0,0
0,0,0
0,0,0
0,0,0
0,0,0
0,0,0
0,0,0
0,0,0
0,0,0
0,0,0
0,0,0
0,0,0
0,0,0
0,0,0
0,0,0
0,0,0
0,0,0
0,0,0
0,0,0
0,0,0
0,0,0
0,0,0
0,0,0
0,0,0
0,0,0
0,0,0
0,0,0
0,0,0
0,0,0
0,0,0
0,0,0
0,0,0
0,0,0
0,0,0
0,0,0
0,0,0
0,0,0
0,0,0
0,0,0
0,0,0
0,0,0
0,0,0
0,0,0
0,0,0
0,0,0
0,0,0
0,0,0
0,0,0
0,0,0
0,0,0
0,0,0
0,0,0
0,0,0
0,0,0
0,0,0
0,0,0
0,0,0
0,0,0
0,0,0
0,0,0
0,0,0
0,0,0
0,0,0
0,0,0
0,0,0
0,0,0
0,0,0
0,0,0
0,0,0
0,0,0
0,0,0
0,0,0
0,0,0
0,0,0
0,0,0
0,0,0
0,0,0
0,0,0
0,0,0
0,0,0
0,0,0
0,0,0
0,0,0
0,0,0
0,0,0
0,0,0
0,0,0
0,0,0
0,0,0
0,0,0
0,0,0
0,0,0
0,0,0
0,0,0
0,0,0
0,0,0
0,0,0
0,0,0
0,0,0
0,0,0
0,0,0
0,0,0
0,0,0
0,0,0
0,0,0
0,0,0
0,0,0
0,0,0
0,0,0
0,0,0
0,0,0
0,0,0
0,0,0
0,0,0
0,0,0
0,0,0
0,0,0
0,0,0
0,0,0
0,0,0
0,0,0
0,0,0
0,0,0
0,0,0
0,0,0
0,0,0
0,0,0
0,0,0
0,0,0
0,0,0
0,0,0
0,0,0
0,0,0
0,0,0
0,0,0
0,0,0
0,0,0
0,0,0
0,0,0
0,0,0
0,0,0
0,0,0
0,0,0
0,0,0
0,0,0
0,0,0
0,0,0
0,0,0
0,0,0
0,0,0
0,0,0
0,0,0
0,0,0
0,0,0
0,0,0
0,0,0
0,0,0
0,0,0
0,0,0
0,0,0
0,0,0
0,0,0
0,0,0
0,0,0
0,0,0
0,0,0
0,0,0
0,0,0
0,0,0
0,0,0
0,0,0
0,0,0
0,0,0
0,0,0
0,0,0
0,0,0
0,0,0
0,0,0
0,0,0
0,0,0
0,0,0
0,0,0
0,0,0
0,0,0
0,0,0
0,0,0
0,0,0
0,0,0
0,0,0
0,0,0
0,0,0
0,0,0
0,0,0
0,0,0
0,0,0
0,0,0
0,0,0
0,0,0
0,0,0
0,0,0
0,0,0
0,0,0
0,0,0
0,0,0
0,0,0
0,0,0
0,0,0
0,0,0
0,0,0
0,0,0
0,0,0
0,0,0
0,0,0
0,0,0
0,0,0
0,0,0
0,0,0
0,0,0
0,0,0
0,0,0
0,0,0
0,0,0
0,0,0
0,0,0
0,0,0
0,0,0
0,0,0
0,0,0
0,0,0
0,0,0
0,0,0
0,0,0
0,0,0
0,0,0
0,0,0
0,0,0
0,0,0
0,0,0
0,0,0
0,0,0
0,0,0
0,0,0
0,0,0
0,0,0
0,0,0
0,0,0
0,0,0
0,0,0
0,0,0
0,0,0
0,0,0
0,0,0
0,0,0
0,0,0
0,0,0
0,0,0
0,0,0
0,0,0
0,0,0
0,0,0
0,0,0
0,0,0
0,0,0
0,0,0
0,0,0
0,0,0
0,0,0
0,0,0
0,0,0
0,0,0
0,0,0
0,0,0
0,0,0
0,0,0
0,0,0
0,0,0
0,0,0
0,0,0
0,0,0
0,0,0
0,0,0
0,0,0
0,0,0
0,0,0
0,0,0
0,0,0
0,0,0
0,0,0
0,0,0
0,0,0
0,0,0
0,0,0
0,0,0
0,0,0
0,0,0
0,0,0
0,0,0
0,0,0
0,0,0
0,0,0
0,0,0
0,0,0
0,0,0
0,0,0
0,0,0
0,0,0
0,0,0
0,0,0
0,0,0
0,0,0
0,0,0
0,0,0
0,0,0
0,0,0
0,0,0
0,0,0
0,0,0
0,0,0
0,0,0
0,0,0
0,0,0
0,0,0
0,0,0
0,0,0
0,0,0
0,0,0
0,0,0
0,0,0
0,0,0
0,0,0
0,0,0
0,0,0
0,0,0
0,0,0
0,0,0
0,0,0
0,0,0
0,0,0
0,0,0
0,0,0
0,0,0
0,0,0
0,0,0
0,0,0
0,0,0
0,0,0
0,0,0
0,0,0
0,0,0
0,0,0
0,0,0
0,0,0
0,0,0
0,0,0
0,0,0
0,0,0
0,0,0
0,0,0
0,0,0
0,0,0
0,0,0
0,0,0
0,0,0
0,0,0
0,0,0
0,0,0
0,0,0
0,0,0
0,0,0
0,0,0
0,0,0
0,0,0
0,0,0
0,0,0
0,0,0
0,0,0
0,0,0
0,0,0
0,0,0
0,0,0
0,0,0
0,0,0
0,0,0
0,0,0
0,0,0
0,0,0
0,0,0
0,0,0
0,0,0
0,0,0
0,0,0
0,0,0
0,0,0
0,0,0
0,0,0
0,0,0
0,0,0
0,0,0
0,0,0
0,0,0
0,0,0
0,0,0
0,0,0
0,0,0
0,0,0
0,0,0
0,0,0
0,0,0
0,0,0
0,0,0
0,0,0
0,0,0
0,0,0
0,0,0
0,0,0
0,0,0
0,0,0
0,0,0
0,0,0
0,0,0
0,0,0
0,0,0
0,0,0
0,0,0
0,0,0
0,0,0
0,0,0
0,0,0
0,0,0
0,0,0
0,0,0
0,0,0
0,0,0
0,0,0
0,0,0
0,0,0
0,0,0
0,0,0
0,0,0
0,0,0
0,0,0
0,0,0
0,0,0
0,0,0
0,0,0
0,0,0
0,0,0
0,0,0
0,0,0
0,0,0
0,0,0
0,0,0
0,0,0
0,0,0
0,0,0
0,0,0
0,0,0
0,0,0
0,0,0
0,0,0
0,0,0
0,0,0
0,0,0
0,0,0
0,0,0
0,0,0
0,0,0
0,0,0
0,0,0
0,0,0
0,0,0
0,0,0
0,0,0
0,0,0
0,0,0
0,0,0
0,0,0
0,0,0
0,0,0
0,0,0
0,0,0
0,0,0
0,0,0
0,0,0
0,0,0
0,0,0
0,0,0
0,0,0
0,0,0
0,0,0
0,0,0
0,0,0
0,0,0
0,0,0
0,0,0
0,0,0
0,0,0
0,0,0
0,0,0
0,0,0
0,0,0
0,0,0
0,0,0
0,0,0
0,0,0
0,0,0
0,0,0
0,0,0
0,0,0
0,0,0
0,0,0
0,0,0
0,0,0
0,0,0
0,0,0
0,0,0
0,0,0
0,0,0
0,0,0
0,0,0
0,0,0
0,0,0
0,0,0
0,0,0
0,0,0
0,0,0
0,0,0
0,0,0
0,0,0
0,0,0
0,0,0
0,0,0
0,0,0
0,0,0
0,0,0
0,0,0
0,0,0
0,0,0
0,0,0
0,0,0
0,0,0
0,0,0
0,0,0
0,0,0
0,0,0
0,0,0
0,0,0
0,0,0
0,0,0
0,0,0
0,0,0
0,0,0
0,0,0
0,0,0
0,0,0
0,0,0
0,0,0
0,0,0
0,0,0
0,0,0
0,0,0
0,0,0
0,0,0
0,0,0
0,0,0
0,0,0
0,0,0
0,0,0
0,0,0
0,0,0
0,0,0
0,0,0
0,0,0
0,0,0
0,0,0
0,0,0
0,0,0
0,0,0
0,0,0
0,0,0
0,0,0
0,0,0
0,0,0
0,0,0
0,0,0
0,0,0
0,0,0
0,0,0
0,0,0
0,0,0
0,0,0
0,0,0
0,0,0
0,0,0
0,0,0
0,0,0
0,0,0
0,0,0
0,0,0
0,0,0
0,0,0
0,0,0
0,0,0
0,0,0
0,0,0
0,0,0
0,0,0
0,0,0
0,0,0
0,0,0
0,0,0
0,0,0
0,0,0
0,0,0
0,0,0
0,0,0
0,0,0
0,0,0
0,0,0
0,0,0
0,0,0
0,0,0
0,0,0
0,0,0
0,0,0
0,0,0
0,0,0
0,0,0
0,0,0
0,0,0
0,0,0
0,0,0
0,0,0
0,0,0
0,0,0
0,0,0
0,0,0
0,0,0
0,0,0
0,0,0
0,0,0
0,0,0
0,0,0
0,0,0
0,0,0
0,0,0
0,0,0
0,0,0
0,0,0
0,0,0
0,0,0
0,0,0
0,0,0
0,0,0
0,0,0
0,0,0
0,0,0
0,0,0
0,0,0
0,0,0
0,0,0
0,0,0
0,0,0
0,0,0
0,0,0
0,0,0
0,0,0
0,0,0
0,0,0
0,0,0
0,0,0
0,0,0
0,0,0
0,0,0
0,0,0
0,0,0
0,0,0
0,0,0
0,0,0
0,0,0
0,0,0
0,0,0
0,0,0
0,0,0
0,0,0
0,0,0
0,0,0
0,0,0
0,0,0
0,0,0
0,0,0
0,0,0
0,0,0
0,0,0
0,0,0
0,0,0
0,0,0
0,0,0
0,0,0
0,0,0
0,0,0
0,0,0
0,0,0
0,0,0
0,0,0
0,0,0
0,0,0
0,0,0
0,0,0
0,0,0
0,0,0
0,0,0
0,0,0
0,0,0
0,0,0
0,0,0
0,0,0
0,0,0
0,0,0
0,0,0
0,0,0
0,0,0
0,0,0
0,0,0
0,0,0
0,0,0
0,0,0
0,0,0
0,0,0
0,0,0
0,0,0
0,0,0
0,0,0
0,0,0
0,0,0
0,0,0
0,0,0
0,0,0
0,0,0
0,0,0
0,0,0
0,0,0
0,0,0
0,0,0
0,0,0
0,0,0
0,0,0
0,0,0
0,0,0
0,0,0
0,0,0
0,0,0
0,0,0
0,0,0
0,0,0
0,0,0
0,0,0
0,0,0
0,0,0
0,0,0
0,0,0
0,0,0
0,0,0
0,0,0
0,0,0
0,0,0
0,0,0
0,0,0
0,0,0
0,0,0
0,0,0
0,0,0
0,0,0
0,0,0
0,0,0
0,0,0
0,0,0
0,0,0
0,0,0
0,0,0
0,0,0
0,0,0
0,0,0
0,0,0
0,0,0
0,0,0
0,0,0
0,0,0
0,0,0
0,0,0
0,0,0
0,0,0
0,0,0
0,0,0
0,0,0
0,0,0
0,0,0
0,0,0
0,0,0
0,0,0
0,0,0
0,0,0
0,0,0
0,0,0
0,0,0
0,0,0
0,0,0
0,0,0
0,0,0
0,0,0
0,0,0
0,0,0
0,0,0
0,0,0
0,0,0
0,0,0
0,0,0
0,0,0
0,0,0
0,0,0
0,0,0
0,0,0
0,0,0
0,0,0
0,0,0
0,0,0
0,0,0
0,0,0
0,0,0
0,0,0
0,0,0
0,0,0
0,0,0
0,0,0
0,0,0
0,0,0
0,0,0
0,0,0
0,0,0
0,0,0
0,0,0
0,0,0
0,0,0
0,0,0
0,0,0
0,0,0
0,0,0
0,0,0
0,0,0
0,0,0
0,0,0
0,0,0
0,0,0
0,0,0
0,0,0
0,0,0
0,0,0
0,0,0
0,0,0
0,0,0
0,0,0
0,0,0
0,0,0
0,0,0
0,0,0
0,0,0
0,0,0
0,0,0
0,0,0
0,0,0
0,0,0
0,0,0
0,0,0
0,0,0
0,0,0
0,0,0
0,0,0
0,0,0
0,0,0
0,0,0
0,0,0
0,0,0
0,0,0
0,0,0
0,0,0
0,0,0
0,0,0
0,0,0
0,0,0
0,0,0
0,0,0
0,0,0
0,0,0
0,0,0
0,0,0
0,0,0
0,0,0
0,0,0
0,0,0
0,0,0
0,0,0
0,0,0
0,0,0
0,0,0
0,0,0
0,0,0
0,0,0
0,0,0
0,0,0
0,0,0
0,0,0
0,0,0
0,0,0
0,0,0
0,0,0
0,0,0
0,0,0
0,0,0
0,0,0
0,0,0
0,0,0
0,0,0
0,0,0
0,0,0
0,0,0
0,0,0
0,0,0
0,0,0
0,0,0
0,0,0
0,0,0
0,0,0
0,0,0
0,0,0
0,0,0
0,0,0
0,0,0
0,0,0
0,0,0
0,0,0
0,0,0
0,0,0
0,0,0
0,0,0
0,0,0
0,0,0
0,0,0
0,0,0
0,0,0
0,0,0
0,0,0
0,0,0
0,0,0
0,0,0
0,0,0
0,0,0
0,0,0
0,0,0
0,0,0
0,0,0
0,0,0
0,0,0
0,0,0
0,0,0
0,0,0
0,0,0
0,0,0
0,0,0
0,0,0
0,0,0
0,0,0
0,0,0
0,0,0
0,0,0
0,0,0
0,0,0
0,0,0
0,0,0
0,0,0
0,0,0
0,0,0
0,0,0
0,0,0
0,0,0
0,0,0
0,0,0
0,0,0
0,0,0
0,0,0
0,0,0
0,0,0
0,0,0
0,0,0
0,0,0
0,0,0
0,0,0
0,0,0
0,0,0
0,0,0
0,0,0
0,0,0
0,0,0
0,0,0
0,0,0
0,0,0
0,0,0
0,0,0
0,0,0
0,0,0
0,0,0
0,0,0
0,0,0
0,0,0
0,0,0
0,0,0
0,0,0
0,0,0
0,0,0
0,0,0
0,0,0
0,0,0
0,0,0
0,0,0
0,0,0
0,0,0
0,0,0
0,0,0
0,0,0
0,0,0
0,0,0
0,0,0
0,0,0
0,0,0
0,0,0
0,0,0
0,0,0
0,0,0
0,0,0
0,0,0
0,0,0
0,0,0
0,0,0
0,0,0
0,0,0
0,0,0
0,0,0
0,0,0
0,0,0
0,0,0
0,0,0
0,0,0
0,0,0
0,0,0
0,0,0
0,0,0
0,0,0
0,0,0
0,0,0
0,0,0
0,0,0
0,0,0
0,0,0
0,0,0
0,0,0
0,0,0
0,0,0
0,0,0
0,0,0
0,0,0
0,0,0
0,0,0
0,0,0
0,0,0
0,0,0
0,0,0
0,0,0
0,0,0
0,0,0
0,0,0
0,0,0
0,0,0
0,0,0
0,0,0
0,0,0
0,0,0
0,0,0
0,0,0
0,0,0
0,0,0
0,0,0
0,0,0
0,0,0
0,0,0
0,0,0
0,0,0
0,0,0
0,0,0
0,0,0
0,0,0
0,0,0
0,0,0
0,0,0
0,0,0
0,0,0
0,0,0
0,0,0
0,0,0
0,0,0
0,0,0
0,0,0
0,0,0
0,0,0
0,0,0
0,0,0
0,0,0
0,0,0
0,0,0
0,0,0
0,0,0
0,0,0
0,0,0
0,0,0
0,0,0
0,0,0
0,0,0
0,0,0
0,0,0
0,0,0
0,0,0
0,0,0
0,0,0
0,0,0
0,0,0
0,0,0
0,0,0
0,0,0
0,0,0
0,0,0
0,0,0
0,0,0
0,0,0
0,0,0
0,0,0
0,0,0
0,0,0
0,0,0
0,0,0
0,0,0
0,0,0
0,0,0
0,0,0
0,0,0
0,0,0
0,0,0
0,0,0
0,0,0
0,0,0
0,0,0
0,0,0
0,0,0
0,0,0
0,0,0
0,0,0
0,0,0
0,0,0
0,0,0
0,0,0
0,0,0
0,0,0
0,0,0
0,0,0
0,0,0
0,0,0
0,0,0
0,0,0
0,0,0
0,0,0
0,0,0
0,0,0
0,0,0
0,0,0
0,0,0
0,0,0
0,0,0
0,0,0
0,0,0
0,0,0
0,0,0
0,0,0
0,0,0
0,0,0
0,0,0
0,0,0
0,0,0
0,0,0
0,0,0
0,0,0
0,0,0
0,0,0
0,0,0
0,0,0
0,0,0
0,0,0
0,0,0
0,0,0
0,0,0
0,0,0
0,0,0
0,0,0
0,0,0
0,0,0
0,0,0
0,0,0
0,0,0
0,0,0
0,0,0
0,0,0
0,0,0
0,0,0
0,0,0
0,0,0
0,0,0
0,0,0
0,0,0
0,0,0
0,0,0
0,0,0
0,0,0
0,0,0
0,0,0
0,0,0
0,0,0
0,0,0
0,0,0
0,0,0
0,0,0
0,0,0
0,0,0
0,0,0
0,0,0
0,0,0
0,0,0
0,0,0
0,0,0
0,0,0
0,0,0
0,0,0
0,0,0
0,0,0
0,0,0
0,0,0
0,0,0
0,0,0
0,0,0
0,0,0
0,0,0
0,0,0
0,0,0
0,0,0
0,0,0
0,0,0
0,0,0
0,0,0
0,0,0
0,0,0
0,0,0
0,0,0
0,0,0
0,0,0
0,0,0
0,0,0
0,0,0
0,0,0
0,0,0
0,0,0
0,0,0
0,0,0
0,0,0
0,0,0
0,0,0
0,0,0
0,0,0
0,0,0
0,0,0
0,0,0
0,0,0
0,0,0
0,0,0
0,0,0
0,0,0
0,0,0
0,0,0
0,0,0
0,0,0
0,0,0
0,0,0
0,0,0
0,0,0
0,0,0
0,0,0
0,0,0
0,0,0
0,0,0
0,0,0
0,0,0
0,0,0
0,0,0
0,0,0
0,0,0
0,0,0
0,0,0
0,0,0
0,0,0
0,0,0
0,0,0
0,0,0
0,0,0
0,0,0
0,0,0
0,0,0
0,0,0
0,0,0
0,0,0
0,0,0
0,0,0
0,0,0
0,0,0
0,0,0
0,0,0
0,0,0
0,0,0
0,0,0
0,0,0
0,0,0
0,0,0
0,0,0
0,0,0
0,0,0
0,0,0
0,0,0
0,0,0
0,0,0
0,0,0
0,0,0
0,0,0
0,0,0
0,0,0
0,0,0
0,0,0
0,0,0
0,0,0
0,0,0
0,0,0
0,0,0
0,0,0
0,0,0
0,0,0
0,0,0
0,0,0
0,0,0
0,0,0
0,0,0
0,0,0
0,0,0
0,0,0
0,0,0
0,0,0
0,0,0
0,0,0
0,0,0
0,0,0
0,0,0
0,0,0
0,0,0
0,0,0
0,0,0
0,0,0
0,0,0
0,0,0
0,0,0
0,0,0
0,0,0
0,0,0
0,0,0
0,0,0
0,0,0
0,0,0
0,0,0
0,0,0
0,0,0
0,0,0
0,0,0
0,0,0
0,0,0
0,0,0
0,0,0
0,0,0
0,0,0
0,0,0
0,0,0
0,0,0
0,0,0
0,0,0
0,0,0
0,0,0
0,0,0
0,0,0
0,0,0
0,0,0
0,0,0
0,0,0
0,0,0
0,0,0
0,0,0
0,0,0
0,0,0
0,0,0
0,0,0
0,0,0
0,0,0
0,0,0
0,0,0
0,0,0
0,0,0
0,0,0
0,0,0
0,0,0
0,0,0
0,0,0
0,0,0
0,0,0
0,0,0
0,0,0
0,0,0
0,0,0
0,0,0
0,0,0
0,0,0
0,0,0
0,0,0
0,0,0
0,0,0
0,0,0
0,0,0
0,0,0
0,0,0
0,0,0
0,0,0
0,0,0
0,0,0
0,0,0
0,0,0
0,0,0
0,0,0
0,0,0
0,0,0
0,0,0
0,0,0
0,0,0
0,0,0
0,0,0
0,0,0
0,0,0
0,0,0
0,0,0
0,0,0
0,0,0
0,0,0
0,0,0
0,0,0
0,0,0
0,0,0
0,0,0
0,0,0
0,0,0
0,0,0
0,0,0
0,0,0
0,0,0
0,0,0
0,0,0
0,0,0
0,0,0
0,0,0
0,0,0
0,0,0
0,0,0
0,0,0
0,0,0
0,0,0
0,0,0
0,0,0
0,0,0
0,0,0
0,0,0
0,0,0
0,0,0
0,0,0
0,0,0
0,0,0
0,0,0
0,0,0
0,0,0
0,0,0
0,0,0
0,0,0
0,0,0
0,0,0
0,0,0
0,0,0
0,0,0
0,0,0
0,0,0
0,0,0
0,0,0
0,0,0
0,0,0
0,0,0
0,0,0
0,0,0
0,0,0
0,0,0
0,0,0
0,0,0
0,0,0
0,0,0
0,0,0
0,0,0
0,0,0
0,0,0
0,0,0
0,0,0
0,0,0
0,0,0
0,0,0
0,0,0
0,0,0
0,0,0
0,0,0
0,0,0
0,0,0
0,0,0
0,0,0
0,0,0
0,0,0
0,0,0
0,0,0
0,0,0
0,0,0
0,0,0
0,0,0
0,0,0
0,0,0
0,0,0
0,0,0
0,0,0
0,0,0
0,0,0
0,0,0
0,0,0
0,0,0
0,0,0
0,0,0
0,0,0
0,0,0
0,0,0
0,0,0
0,0,0
0,0,0
0,0,0
0,0,0
0,0,0
0,0,0
0,0,0
0,0,0
0,0,0
0,0,0
0,0,0
0,0,0
0,0,0
0,0,0
0,0,0
0,0,0
0,0,0
0,0,0
0,0,0
0,0,0
0,0,0
0,0,0
0,0,0
0,0,0
0,0,0
0,0,0
0,0,0
0,0,0
0,0,0
0,0,0
0,0,0
0,0,0
0,0,0
0,0,0
0,0,0
0,0,0
0,0,0
0,0,0
0,0,0
0,0,0
0,0,0
0,0,0
0,0,0
0,0,0
0,0,0
0,0,0
0,0,0
0,0,0
0,0,0
0,0,0
0,0,0
0,0,0
0,0,0
0,0,0
0,0,0
0,0,0
0,0,0
0,0,0
0,0,0
0,0,0
0,0,0
0,0,0
0,0,0
0,0,0
0,0,0
0,0,0
0,0,0
0,0,0
0,0,0
0,0,0
0,0,0
0,0,0
0,0,0
0,0,0
0,0,0
0,0,0
0,0,0
0,0,0
0,0,0
0,0,0
0,0,0
0,0,0
0,0,0
0,0,0
0,0,0
0,0,0
0,0,0
0,0,0
0,0,0
0,0,0
0,0,0
0,0,0
0,0,0
0,0,0
0,0,0
0,0,0
0,0,0
0,0,0
0,0,0
0,0,0
0,0,0
0,0,0
0,0,0
0,0,0
0,0,0
0,0,0
0,0,0
0,0,0
0,0,0
0,0,0
0,0,0
0,0,0
0,0,0
0,0,0
0,0,0
0,0,0
0,0,0
0,0,0
0,0,0
0,0,0
0,0,0
0,0,0
0,0,0
0,0,0
0,0,0
0,0,0
0,0,0
0,0,0
0,0,0
0,0,0
0,0,0
0,0,0
0,0,0
0,0,0
0,0,0
0,0,0
0,0,0
0,0,0
0,0,0
0,0,0
0,0,0
0,0,0
0,0,0
0,0,0
0,0,0
0,0,0
0,0,0
0,0,0
0,0,0
0,0,0
0,0,0
0,0,0
0,0,0
0,0,0
0,0,0
0,0,0
0,0,0
0,0,0
0,0,0
0,0,0
0,0,0
0,0,0
0,0,0
0,0,0
0,0,0
0,0,0
0,0,0
0,0,0
0,0,0
0,0,0
0,0,0
0,0,0
0,0,0
0,0,0
0,0,0
0,0,0
0,0,0
0,0,0
0,0,0
0,0,0
0,0,0
0,0,0
0,0,0
0,0,0
0,0,0
0,0,0
0,0,0
0,0,0
0,0,0
0,0,0
0,0,0
0,0,0
0,0,0
0,0,0
0,0,0
0,0,0
0,0,0
0,0,0
0,0,0
0,0,0
0,0,0
0,0,0
0,0,0
0,0,0
0,0,0
0,0,0
0,0,0
0,0,0
0,0,0
0,0,0
0,0,0
0,0,0
0,0,0
0,0,0
0,0,0
0,0,0
0,0,0
0,0,0
0,0,0
0,0,0
0,0,0
0,0,0
0,0,0
0,0,0
0,0,0
0,0,0
0,0,0
0,0,0
0,0,0
0,0,0
0,0,0
0,0,0
0,0,0
0,0,0
0,0,0
0,0,0
0,0,0
0,0,0
0,0,0
0,0,0
0,0,0
0,0,0
0,0,0
0,0,0
0,0,0
0,0,0
0,0,0
0,0,0
0,0,0
0,0,0
0,0,0
0,0,0
0,0,0
0,0,0
0,0,0
0,0,0
0,0,0
0,0,0
0,0,0
0,0,0
0,0,0
0,0,0
0,0,0
0,0,0
0,0,0
0,0,0
0,0,0
0,0,0
0,0,0
0,0,0
0,0,0
0,0,0
0,0,0
0,0,0
0,0,0
0,0,0
0,0,0
0,0,0
0,0,0
0,0,0
0,0,0
0,0,0
0,0,0
0,0,0
0,0,0
0,0,0
0,0,0
0,0,0
0,0,0
0,0,0
0,0,0
0,0,0
0,0,0
0,0,0
0,0,0
0,0,0
0,0,0
0,0,0
0,0,0
0,0,0
0,0,0
0,0,0
0,0,0
0,0,0
0,0,0
0,0,0
0,0,0
0,0,0
0,0,0
0,0,0
0,0,0
0,0,0
0,0,0
0,0,0
0,0,0
0,0,0
0,0,0
0,0,0
0,0,0
0,0,0
0,0,0
0,0,0
0,0,0
0,0,0
0,0,0
0,0,0
0,0,0
0,0,0
0,0,0
0,0,0
0,0,0
0,0,0
0,0,0
0,0,0
0,0,0
0,0,0
0,0,0
0,0,0
0,0,0
0,0,0
0,0,0
0,0,0
0,0,0
0,0,0
0,0,0
0,0,0
0,0,0
0,0,0
0,0,0
0,0,0
0,0,0
0,0,0
0,0,0
0,0,0
0,0,0
0,0,0
0,0,0
0,0,0
0,0,0
0,0,0
0,0,0
0,0,0
0,0,0
0,0,0
0,0,0
0,0,0
0,0,0
0,0,0
0,0,0
0,0,0
0,0,0
0,0,0
0,0,0
0,0,0
0,0,0
0,0,0
0,0,0
0,0,0
0,0,0
0,0,0
0,0,0
0,0,0
0,0,0
0,0,0
0,0,0
0,0,0
0,0,0
0,0,0
0,0,0
0,0,0
0,0,0
0,0,0
